trig_exp,trig_item,sentence,trig_w1,trig1,trig_w2,trig2,gram,task,paus,trig_1,trig_2,prac_trials.thisRepN,prac_trials.thisTrialN,prac_trials.thisN,prac_trials.thisIndex,trials_2.thisRepN,trials_2.thisTrialN,trials_2.thisN,trials_2.thisIndex,trials.thisRepN,trials.thisTrialN,trials.thisN,trials.thisIndex,exp_trials.thisRepN,exp_trials.thisTrialN,exp_trials.thisN,exp_trials.thisIndex,grating_1.started,grating_1.stopped,text_1.started,text_1.stopped,key_resp_1.keys,key_resp_1.rt,key_resp_1.started,key_resp_1.stopped,grating_2.started,grating_2.stopped,text_2.started,text_2.stopped,key_resp_2.keys,key_resp_2.rt,key_resp_2.started,key_resp_2.stopped,grating_3.started,grating_3.stopped,text_3.started,text_3.stopped,key_resp_3.keys,key_resp_3.rt,key_resp_3.started,key_resp_3.stopped,grating_4.started,grating_4.stopped,text_4.started,text_4.stopped,key_resp_4.keys,key_resp_4.rt,key_resp_4.started,key_resp_4.stopped,grating_5.started,grating_5.stopped,text_5.started,text_5.stopped,key_resp_5.keys,key_resp_5.rt,key_resp_5.started,key_resp_5.stopped,grating_6.started,grating_6.stopped,text_6.started,text_6.stopped,key_resp_6.keys,key_resp_6.rt,key_resp_6.started,key_resp_6.stopped,grating_7.started,grating_7.stopped,text_7.started,text_7.stopped,key_resp_7.keys,key_resp_7.rt,key_resp_7.started,key_resp_7.stopped,grating_8.started,grating_8.stopped,text_8.started,text_8.stopped,key_resp_8.keys,key_resp_8.rt,key_resp_8.started,key_resp_8.stopped,grating_9.started,grating_9.stopped,text_9.started,text_9.stopped,key_resp_9.keys,key_resp_9.rt,key_resp_9.started,key_resp_9.stopped,grating.started,grating.stopped,text.started,text.stopped,key_resp.keys,key_resp.rt,key_resp.started,key_resp.stopped,grating_14.started,grating_14.stopped,text_fix_4.started,text_fix_4.stopped,grating_16.started,grating_16.stopped,grating_40.started,grating_40.stopped,ISI_4.started,ISI_4.stopped,text_19.started,text_19.stopped,grating_24.started,grating_24.stopped,grating_35.started,grating_35.stopped,prompt.started,prompt.stopped,Button_Press.keys,Button_Press.corr,Button_Press.rt,Button_Press.started,Button_Press.stopped,grating_33.started,grating_33.stopped,grating_34.started,grating_34.stopped,Correct_Incorrect.started,Correct_Incorrect.stopped,Continue_text.started,Continue_text.stopped,Press_Bar.keys,Press_Bar.rt,Press_Bar.started,Press_Bar.stopped,grating_26.started,grating_26.stopped,grating_27.started,grating_27.stopped,text_10.started,text_10.stopped,key_resp_11.keys,key_resp_11.rt,key_resp_11.started,key_resp_11.stopped,grating_28.started,grating_28.stopped,text_11.started,text_11.stopped,key_resp_12.keys,key_resp_12.rt,key_resp_12.started,key_resp_12.stopped,grating_29.started,grating_29.stopped,text_12.started,text_12.stopped,key_resp_13.keys,key_resp_13.rt,key_resp_13.started,key_resp_13.stopped,grating_36.started,grating_36.stopped,text_14.started,text_14.stopped,key_resp_14.keys,key_resp_14.rt,key_resp_14.started,key_resp_14.stopped,grating_10.started,grating_10.stopped,text_fix.started,text_fix.stopped,grating_11.started,grating_11.stopped,grating_37.started,grating_37.stopped,ISI_2.started,ISI_2.stopped,text_15.started,text_15.stopped,grating_38.started,grating_38.stopped,text_fix_3.started,text_fix_3.stopped,key_resp_16.keys,key_resp_16.started,key_resp_16.stopped,key_resp_16.rt,participant,session,date,expName,psychopyVersion,frameRate,
,,,,,,,,,,,,,,,,,,,,,,,,,,,,9.713182851961392,None,9.713182851961392,None,space,73.58459309122463,9.713182851961392,None,,,,,,,,,,,,,,,,,,,,,,,,,,,,,,,,,,,,,,,,,,,,,,,,,,,,,,,,,,,,,,,,,,,,,,,,,,,,,,,,,,,,,,,,,,,,,,,,,,,,,,,,,,,,,,,,,,,,,,,,,,,,,,,,,,,,,,,,,,,,,,,,,,,,,,,,,,,,,,,,,,NENA_028,001,2021_Jan_27_1126,test7,3.2.4,99.97117444146842,
,,,,,,,,,,,,,,,,,,,,,,,,,,,,,,,,,,,,83.31628895579342,None,83.31628895579342,None,space,58.79600886633489,83.31628895579342,None,,,,,,,,,,,,,,,,,,,,,,,,,,,,,,,,,,,,,,,,,,,,,,,,,,,,,,,,,,,,,,,,,,,,,,,,,,,,,,,,,,,,,,,,,,,,,,,,,,,,,,,,,,,,,,,,,,,,,,,,,,,,,,,,,,,,,,,,,,,,,,,,,,,,,,,,,,NENA_028,001,2021_Jan_27_1126,test7,3.2.4,99.97117444146842,
,,,,,,,,,,,,,,,,,,,,,,,,,,,,,,,,,,,,,,,,,,,,142.1264793395212,None,142.1264793395212,None,space,15.185324169357955,142.1264793395212,None,,,,,,,,,,,,,,,,,,,,,,,,,,,,,,,,,,,,,,,,,,,,,,,,,,,,,,,,,,,,,,,,,,,,,,,,,,,,,,,,,,,,,,,,,,,,,,,,,,,,,,,,,,,,,,,,,,,,,,,,,,,,,,,,,,,,,,,,,,,,,,,,,,NENA_028,001,2021_Jan_27_1126,test7,3.2.4,99.97117444146842,
,,,,,,,,,,,,,,,,,,,,,,,,,,,,,,,,,,,,,,,,,,,,,,,,,,,,157.32914199831248,None,157.32914199831248,None,space,4.246638320310012,157.32914199831248,None,,,,,,,,,,,,,,,,,,,,,,,,,,,,,,,,,,,,,,,,,,,,,,,,,,,,,,,,,,,,,,,,,,,,,,,,,,,,,,,,,,,,,,,,,,,,,,,,,,,,,,,,,,,,,,,,,,,,,,,,,,,,,,,,,,,,,,,,,,NENA_028,001,2021_Jan_27_1126,test7,3.2.4,99.97117444146842,
,,,,,,,,,,,,,,,,,,,,,,,,,,,,,,,,,,,,,,,,,,,,,,,,,,,,,,,,,,,,161.58985727715208,None,161.58985727715208,None,space,8.401624703602465,161.58985727715208,None,,,,,,,,,,,,,,,,,,,,,,,,,,,,,,,,,,,,,,,,,,,,,,,,,,,,,,,,,,,,,,,,,,,,,,,,,,,,,,,,,,,,,,,,,,,,,,,,,,,,,,,,,,,,,,,,,,,,,,,,,,,,,,,,,,NENA_028,001,2021_Jan_27_1126,test7,3.2.4,99.97117444146842,
,,,,,,,,,,,,,,,,,,,,,,,,,,,,,,,,,,,,,,,,,,,,,,,,,,,,,,,,,,,,,,,,,,,,170.00132238095284,None,170.00132238095284,None,space,8.358061504345642,170.00132238095284,None,,,,,,,,,,,,,,,,,,,,,,,,,,,,,,,,,,,,,,,,,,,,,,,,,,,,,,,,,,,,,,,,,,,,,,,,,,,,,,,,,,,,,,,,,,,,,,,,,,,,,,,,,,,,,,,,,,,,,,,,,,NENA_028,001,2021_Jan_27_1126,test7,3.2.4,99.97117444146842,
,,,,,,,,,,,,,,,,,,,,,,,,,,,,,,,,,,,,,,,,,,,,,,,,,,,,,,,,,,,,,,,,,,,,,,,,,,,,178.3727978893221,None,178.3727978893221,None,space,16.62607473521166,178.3727978893221,None,,,,,,,,,,,,,,,,,,,,,,,,,,,,,,,,,,,,,,,,,,,,,,,,,,,,,,,,,,,,,,,,,,,,,,,,,,,,,,,,,,,,,,,,,,,,,,,,,,,,,,,,,,,,,,,,,,NENA_028,001,2021_Jan_27_1126,test7,3.2.4,99.97117444146842,
,,,,,,,,,,,,,,,,,,,,,,,,,,,,,,,,,,,,,,,,,,,,,,,,,,,,,,,,,,,,,,,,,,,,,,,,,,,,,,,,,,,,195.0156533597874,None,195.0156533597874,None,space,2.6152249891829342,195.0156533597874,None,,,,,,,,,,,,,,,,,,,,,,,,,,,,,,,,,,,,,,,,,,,,,,,,,,,,,,,,,,,,,,,,,,,,,,,,,,,,,,,,,,,,,,,,,,,,,,,,,,,,,,,,,,NENA_028,001,2021_Jan_27_1126,test7,3.2.4,99.97117444146842,
,,,,,,,,,,,,,,,,,,,,,,,,,,,,,,,,,,,,,,,,,,,,,,,,,,,,,,,,,,,,,,,,,,,,,,,,,,,,,,,,,,,,,,,,,,,,197.6461208501596,None,197.6461208501596,None,space,5.344758473837828,197.6461208501596,None,,,,,,,,,,,,,,,,,,,,,,,,,,,,,,,,,,,,,,,,,,,,,,,,,,,,,,,,,,,,,,,,,,,,,,,,,,,,,,,,,,,,,,,,,,,,,,,,,,NENA_028,001,2021_Jan_27_1126,test7,3.2.4,99.97117444146842,
,,,,,,,,,,,,,,,,,,,,,,,,,,,,,,,,,,,,,,,,,,,,,,,,,,,,,,,,,,,,,,,,,,,,,,,,,,,,,,,,,,,,,,,,,,,,,,,,,,,,203.00703174387854,None,203.00703174387854,None,space,3.5675942577299793,203.00703174387854,None,,,,,,,,,,,,,,,,,,,,,,,,,,,,,,,,,,,,,,,,,,,,,,,,,,,,,,,,,,,,,,,,,,,,,,,,,,,,,,,,,,,,,,,,,,NENA_028,001,2021_Jan_27_1126,test7,3.2.4,99.97117444146842,
199,1,Meningarna presenteras ord för ord.,99,99,99,99,cor,1,no,,,0,0,0,0,0,0,0,0,0,0,0,0,,,,,,,,,,,,,,,,,,,,,,,,,,,,,,,,,,,,,,,,,,,,,,,,,,,,,,,,,,,,,,,,,,,,,,,,,,,,,,,,,,,,,206.63706977315542,None,206.63706977315542,None,207.09772597303072,None,210.10831817069447,210.10831817069447,0.009888221443361545,None,210.10831817069447,210.10831817069447,210.5977489054194,None,211.1082508168256,None,211.1082508168256,None,left,1,1.4582779668498915,211.1082508168256,None,212.58874016513255,None,212.91847776408213,None,212.91847776408213,None,212.91847776408213,None,space,2.407940572078587,212.91847776408213,None,,,,,,,,,,,,,,,,,,,,,,,,,,,,,,,,,,,,,,,,,,,,,,,,,,,,,,,NENA_028,001,2021_Jan_27_1126,test7,3.2.4,99.97117444146842,
199,1,Meningarna presenteras ord för ord.,99,99,99,99,cor,1,no,,,0,0,0,0,0,0,0,0,,,,,,,,,,,,,,,,,,,,,,,,,,,,,,,,,,,,,,,,,,,,,,,,,,,,,,,,,,,,,,,,,,,,,,,,,,,,,,,,,,,,,,,,,,,,,,,,,,,,,,,,,,,,,,,,,,,,,,,,,,,,,,,,,,,,,,,,,,,,,,,,,,,,,,,,,,,,,,,,,,,,,,,,,,,,,,,,,,NENA_028,001,2021_Jan_27_1126,test7,3.2.4,99.97117444146842,
199,1,Meningarna presenteras ord för ord.,99,99,99,99,cor,1,no,,,0,0,0,0,,,,,,,,,,,,,,,,,,,,,,,,,,,,,,,,,,,,,,,,,,,,,,,,,,,,,,,,,,,,,,,,,,,,,,,,,,,,,,,,,,,,,,,,,,,,,,,,,,,,,,,,,,,,,,,,,,,,,,,,,,,,,,,,215.33887880184557,None,,,,,,,,,,,,,,,,,,,,,,,,,,,,,,,,,,,,,,,,,,,,,,,,,,,,,NENA_028,001,2021_Jan_27_1126,test7,3.2.4,99.97117444146842,
199,2,Läs meningen noggrant och ange ditt svar när du ser frågetecknet.,99,99,99,99,cor,1,no,,,0,1,1,1,0,0,0,0,0,0,0,0,,,,,,,,,,,,,,,,,,,,,,,,,,,,,,,,,,,,,,,,,,,,,,,,,,,,,,,,,,,,,,,,,,,,,,,,,,,,,,,,,,,,,216.83930585744474,None,216.83930585744474,None,217.33957607475077,None,223.3405934388993,223.3405934388993,0.009897201959574886,None,223.3405934388993,223.3405934388993,223.83003828586334,None,224.33077356559534,None,224.33077356559534,None,left,1,0.6674409154220484,224.33077356559534,None,225.0208915663652,None,225.32063039372133,None,225.32063039372133,None,225.32063039372133,None,space,2.277493127499838,225.32063039372133,None,,,,,,,,,,,,,,,,,,,,,,,,,,,,,,,,,,,,,,,,,,,,,,,,,,,,,,,NENA_028,001,2021_Jan_27_1126,test7,3.2.4,99.97117444146842,
199,2,Läs meningen noggrant och ange ditt svar när du ser frågetecknet.,99,99,99,99,cor,1,no,,,0,1,1,1,0,0,0,0,,,,,,,,,,,,,,,,,,,,,,,,,,,,,,,,,,,,,,,,,,,,,,,,,,,,,,,,,,,,,,,,,,,,,,,,,,,,,,,,,,,,,,,,,,,,,,,,,,,,,,,,,,,,,,,,,,,,,,,,,,,,,,,,,,,,,,,,,,,,,,,,,,,,,,,,,,,,,,,,,,,,,,,,,,,,,,,,,,NENA_028,001,2021_Jan_27_1126,test7,3.2.4,99.97117444146842,
199,2,Läs meningen noggrant och ange ditt svar när du ser frågetecknet.,99,99,99,99,cor,1,no,,,0,1,1,1,,,,,,,,,,,,,,,,,,,,,,,,,,,,,,,,,,,,,,,,,,,,,,,,,,,,,,,,,,,,,,,,,,,,,,,,,,,,,,,,,,,,,,,,,,,,,,,,,,,,,,,,,,,,,,,,,,,,,,,,,,,,,,,,227.62132660820953,None,,,,,,,,,,,,,,,,,,,,,,,,,,,,,,,,,,,,,,,,,,,,,,,,,,,,,NENA_028,001,2021_Jan_27_1126,test7,3.2.4,99.97117444146842,
199,3,I den här meningen finns det en misstag.,99,99,99,99,inc,1,no,,,0,2,2,2,0,0,0,0,0,0,0,0,,,,,,,,,,,,,,,,,,,,,,,,,,,,,,,,,,,,,,,,,,,,,,,,,,,,,,,,,,,,,,,,,,,,,,,,,,,,,,,,,,,,,229.12159265599075,None,229.12159265599075,None,229.62166401901777,None,234.12246857701484,234.12246857701484,0.009900730019580806,None,234.12246857701484,234.12246857701484,234.61192208376178,None,235.11259834867542,None,235.11259834867542,None,left,0,2.5332264651951846,235.11259834867542,None,237.663055537113,None,237.98301271288256,None,237.98301271288256,None,237.98301271288256,None,space,26.430400200650183,237.98301271288256,None,,,,,,,,,,,,,,,,,,,,,,,,,,,,,,,,,,,,,,,,,,,,,,,,,,,,,,,NENA_028,001,2021_Jan_27_1126,test7,3.2.4,99.97117444146842,
199,3,I den här meningen finns det en misstag.,99,99,99,99,inc,1,no,,,0,2,2,2,0,0,0,0,,,,,,,,,,,,,,,,,,,,,,,,,,,,,,,,,,,,,,,,,,,,,,,,,,,,,,,,,,,,,,,,,,,,,,,,,,,,,,,,,,,,,,,,,,,,,,,,,,,,,,,,,,,,,,,,,,,,,,,,,,,,,,,,,,,,,,,,,,,,,,,,,,,,,,,,,,,,,,,,,,,,,,,,,,,,,,,,,,NENA_028,001,2021_Jan_27_1126,test7,3.2.4,99.97117444146842,
199,3,I den här meningen finns det en misstag.,99,99,99,99,inc,1,no,,,0,2,2,2,,,,,,,,,,,,,,,,,,,,,,,,,,,,,,,,,,,,,,,,,,,,,,,,,,,,,,,,,,,,,,,,,,,,,,,,,,,,,,,,,,,,,,,,,,,,,,,,,,,,,,,,,,,,,,,,,,,,,,,,,,,,,,,,264.42809413248415,None,,,,,,,,,,,,,,,,,,,,,,,,,,,,,,,,,,,,,,,,,,,,,,,,,,,,,NENA_028,001,2021_Jan_27_1126,test7,3.2.4,99.97117444146842,
199,4,I det här meningen finns det ett till misstag.,99,99,99,99,inc,1,no,,,0,3,3,3,0,0,0,0,0,0,0,0,,,,,,,,,,,,,,,,,,,,,,,,,,,,,,,,,,,,,,,,,,,,,,,,,,,,,,,,,,,,,,,,,,,,,,,,,,,,,,,,,,,,,265.92776874915216,None,265.92776874915216,None,266.4280707189964,None,271.42890494476796,271.42890494476796,0.009902012950078642,None,271.42890494476796,271.42890494476796,271.91840046749985,None,272.4190985422374,None,272.4190985422374,None,right,1,0.21792183808065602,272.4190985422374,None,272.6495876499948,None,272.9689861093875,None,272.9689861093875,None,272.9689861093875,None,space,2.179838036397996,272.9689861093875,None,,,,,,,,,,,,,,,,,,,,,,,,,,,,,,,,,,,,,,,,,,,,,,,,,,,,,,,NENA_028,001,2021_Jan_27_1126,test7,3.2.4,99.97117444146842,
199,4,I det här meningen finns det ett till misstag.,99,99,99,99,inc,1,no,,,0,3,3,3,0,0,0,0,,,,,,,,,,,,,,,,,,,,,,,,,,,,,,,,,,,,,,,,,,,,,,,,,,,,,,,,,,,,,,,,,,,,,,,,,,,,,,,,,,,,,,,,,,,,,,,,,,,,,,,,,,,,,,,,,,,,,,,,,,,,,,,,,,,,,,,,,,,,,,,,,,,,,,,,,,,,,,,,,,,,,,,,,,,,,,,,,,NENA_028,001,2021_Jan_27_1126,test7,3.2.4,99.97117444146842,
199,4,I det här meningen finns det ett till misstag.,99,99,99,99,inc,1,no,,,0,3,3,3,,,,,,,,,,,,,,,,,,,,,,,,,,,,,,,,,,,,,,,,,,,,,,,,,,,,,,,,,,,,,,,,,,,,,,,,,,,,,,,,,,,,,,,,,,,,,,,,,,,,,,,,,,,,,,,,,,,,,,,,,,,,,,,,275.1591501353014,None,,,,,,,,,,,,,,,,,,,,,,,,,,,,,,,,,,,,,,,,,,,,,,,,,,,,,NENA_028,001,2021_Jan_27_1126,test7,3.2.4,99.97117444146842,
199,5,Ibland kan meningarna låta lite märkliga men ändå vara grammatiskt korrekta.,99,99,99,99,cor,1,no,,,0,4,4,4,0,0,0,0,0,0,0,0,,,,,,,,,,,,,,,,,,,,,,,,,,,,,,,,,,,,,,,,,,,,,,,,,,,,,,,,,,,,,,,,,,,,,,,,,,,,,,,,,,,,,276.6598170989664,None,276.6598170989664,None,277.1598849339334,None,283.1609613129003,283.1609613129003,0.009902333682475728,None,283.1609613129003,283.1609613129003,283.6504279696883,None,284.1508191032244,None,284.1508191032244,None,left,1,0.6778996882794672,284.1508191032244,None,284.85124577394527,None,285.1510169953053,None,285.1510169953053,None,285.1510169953053,None,space,1.6056681166992348,285.1510169953053,None,,,,,,,,,,,,,,,,,,,,,,,,,,,,,,,,,,,,,,,,,,,,,,,,,,,,,,,NENA_028,001,2021_Jan_27_1126,test7,3.2.4,99.97117444146842,
199,5,Ibland kan meningarna låta lite märkliga men ändå vara grammatiskt korrekta.,99,99,99,99,cor,1,no,,,0,4,4,4,0,0,0,0,,,,,,,,,,,,,,,,,,,,,,,,,,,,,,,,,,,,,,,,,,,,,,,,,,,,,,,,,,,,,,,,,,,,,,,,,,,,,,,,,,,,,,,,,,,,,,,,,,,,,,,,,,,,,,,,,,,,,,,,,,,,,,,,,,,,,,,,,,,,,,,,,,,,,,,,,,,,,,,,,,,,,,,,,,,,,,,,,,NENA_028,001,2021_Jan_27_1126,test7,3.2.4,99.97117444146842,
199,5,Ibland kan meningarna låta lite märkliga men ändå vara grammatiskt korrekta.,99,99,99,99,cor,1,no,,,0,4,4,4,,,,,,,,,,,,,,,,,,,,,,,,,,,,,,,,,,,,,,,,,,,,,,,,,,,,,,,,,,,,,,,,,,,,,,,,,,,,,,,,,,,,,,,,,,,,,,,,,,,,,,,,,,,,,,,,,,,,,,,,,,,,,,,,286.78158776160944,None,,,,,,,,,,,,,,,,,,,,,,,,,,,,,,,,,,,,,,,,,,,,,,,,,,,,,NENA_028,001,2021_Jan_27_1126,test7,3.2.4,99.97117444146842,
199,6,De gröna idéerna missade bussen i morse.,99,99,99,99,cor,1,no,,,0,5,5,5,0,0,0,0,0,0,0,0,,,,,,,,,,,,,,,,,,,,,,,,,,,,,,,,,,,,,,,,,,,,,,,,,,,,,,,,,,,,,,,,,,,,,,,,,,,,,,,,,,,,,288.28185124352876,None,288.28185124352876,None,288.781921965091,None,292.7826298221762,292.7826298221762,0.009906182475788228,None,292.7826298221762,292.7826298221762,293.27210000702416,None,293.7724600294878,None,293.7724600294878,None,left,1,4.367928525357456,293.7724600294878,None,298.1543619167114,None,298.4534602408512,None,298.4534602408512,None,298.4534602408512,None,space,1.6307859779508362,298.4534602408512,None,,,,,,,,,,,,,,,,,,,,,,,,,,,,,,,,,,,,,,,,,,,,,,,,,,,,,,,NENA_028,001,2021_Jan_27_1126,test7,3.2.4,99.97117444146842,
199,6,De gröna idéerna missade bussen i morse.,99,99,99,99,cor,1,no,,,0,5,5,5,0,0,0,0,,,,,,,,,,,,,,,,,,,,,,,,,,,,,,,,,,,,,,,,,,,,,,,,,,,,,,,,,,,,,,,,,,,,,,,,,,,,,,,,,,,,,,,,,,,,,,,,,,,,,,,,,,,,,,,,,,,,,,,,,,,,,,,,,,,,,,,,,,,,,,,,,,,,,,,,,,,,,,,,,,,,,,,,,,,,,,,,,,NENA_028,001,2021_Jan_27_1126,test7,3.2.4,99.97117444146842,
199,6,De gröna idéerna missade bussen i morse.,99,99,99,99,cor,1,no,,,0,5,5,5,,,,,,,,,,,,,,,,,,,,,,,,,,,,,,,,,,,,,,,,,,,,,,,,,,,,,,,,,,,,,,,,,,,,,,,,,,,,,,,,,,,,,,,,,,,,,,,,,,,,,,,,,,,,,,,,,,,,,,,,,,,,,,,,300.1038856446776,None,,,,,,,,,,,,,,,,,,,,,,,,,,,,,,,,,,,,,,,,,,,,,,,,,,,,,NENA_028,001,2021_Jan_27_1126,test7,3.2.4,99.97117444146842,
199,7,Det bruna bordet är mer än hundra år gamla.,99,99,99,99,inc,1,no,,,0,6,6,6,0,0,0,0,0,0,0,0,,,,,,,,,,,,,,,,,,,,,,,,,,,,,,,,,,,,,,,,,,,,,,,,,,,,,,,,,,,,,,,,,,,,,,,,,,,,,,,,,,,,,301.6041539375874,None,301.6041539375874,None,302.1042233762182,None,307.09509596482985,307.09509596482985,0.009901371484374977,None,307.09509596482985,307.09509596482985,307.5845712814007,None,308.08526294148487,None,308.08526294148487,None,right,1,0.5908537936747962,308.08526294148487,None,308.69539694040213,None,308.99542955891866,None,308.99542955891866,None,308.99542955891866,None,space,1.5368315008272475,308.99542955891866,None,,,,,,,,,,,,,,,,,,,,,,,,,,,,,,,,,,,,,,,,,,,,,,,,,,,,,,,NENA_028,001,2021_Jan_27_1126,test7,3.2.4,99.97117444146842,
199,7,Det bruna bordet är mer än hundra år gamla.,99,99,99,99,inc,1,no,,,0,6,6,6,0,0,0,0,,,,,,,,,,,,,,,,,,,,,,,,,,,,,,,,,,,,,,,,,,,,,,,,,,,,,,,,,,,,,,,,,,,,,,,,,,,,,,,,,,,,,,,,,,,,,,,,,,,,,,,,,,,,,,,,,,,,,,,,,,,,,,,,,,,,,,,,,,,,,,,,,,,,,,,,,,,,,,,,,,,,,,,,,,,,,,,,,,NENA_028,001,2021_Jan_27_1126,test7,3.2.4,99.97117444146842,
199,7,Det bruna bordet är mer än hundra år gamla.,99,99,99,99,inc,1,no,,,0,6,6,6,,,,,,,,,,,,,,,,,,,,,,,,,,,,,,,,,,,,,,,,,,,,,,,,,,,,,,,,,,,,,,,,,,,,,,,,,,,,,,,,,,,,,,,,,,,,,,,,,,,,,,,,,,,,,,,,,,,,,,,,,,,,,,,,310.5557059791954,None,,,,,,,,,,,,,,,,,,,,,,,,,,,,,,,,,,,,,,,,,,,,,,,,,,,,,NENA_028,001,2021_Jan_27_1126,test7,3.2.4,99.97117444146842,
199,8,På våren gilla alla att tillbringa tid i solen.,99,99,99,99,inc,1,no,,,0,7,7,7,0,0,0,0,0,0,0,0,,,,,,,,,,,,,,,,,,,,,,,,,,,,,,,,,,,,,,,,,,,,,,,,,,,,,,,,,,,,,,,,,,,,,,,,,,,,,,,,,,,,,312.05590210724586,None,312.05590210724586,None,312.5559923935034,None,317.55693951718786,317.55693951718786,0.009902333682475728,None,317.55693951718786,317.55693951718786,318.0463907788062,None,318.54706640225413,None,318.54706640225413,None,right,1,0.3927230880408388,318.54706640225413,None,318.9575657798723,None,319.2571403920829,None,319.2571403920829,None,319.2571403920829,None,space,1.698678036000274,319.2571403920829,None,,,,,,,,,,,,,,,,,,,,,,,,,,,,,,,,,,,,,,,,,,,,,,,,,,,,,,,NENA_028,001,2021_Jan_27_1126,test7,3.2.4,99.97117444146842,
199,8,På våren gilla alla att tillbringa tid i solen.,99,99,99,99,inc,1,no,,,0,7,7,7,0,0,0,0,,,,,,,,,,,,,,,,,,,,,,,,,,,,,,,,,,,,,,,,,,,,,,,,,,,,,,,,,,,,,,,,,,,,,,,,,,,,,,,,,,,,,,,,,,,,,,,,,,,,,,,,,,,,,,,,,,,,,,,,,,,,,,,,,,,,,,,,,,,,,,,,,,,,,,,,,,,,,,,,,,,,,,,,,,,,,,,,,,NENA_028,001,2021_Jan_27_1126,test7,3.2.4,99.97117444146842,
199,8,På våren gilla alla att tillbringa tid i solen.,99,99,99,99,inc,1,no,,,0,7,7,7,,,,,,,,,,,,,,,,,,,,,,,,,,,,,,,,,,,,,,,,,,,,,,,,,,,,,,,,,,,,,,,,,,,,,,,,,,,,,,,,,,,,,,,,,,,,,,,,,,,,,,,,,,,,,,,,,,,,,,,,,,,,,,,,320.97749675177965,None,,,,,,,,,,,,,,,,,,,,,,,,,,,,,,,,,,,,,,,,,,,,,,,,,,,,,NENA_028,001,2021_Jan_27_1126,test7,3.2.4,99.97117444146842,
199,9,Tidningen avskedade dem journalist som publicerade falska fakta.,99,99,99,99,inc,1,no,,,0,8,8,8,0,0,0,0,0,0,0,0,,,,,,,,,,,,,,,,,,,,,,,,,,,,,,,,,,,,,,,,,,,,,,,,,,,,,,,,,,,,,,,,,,,,,,,,,,,,,,,,,,,,,322.477783005721,None,322.477783005721,None,322.9778450674994,None,327.47864609743647,327.47864609743647,0.009903295881485974,None,327.47864609743647,327.47864609743647,327.96811788594823,None,328.4688121118934,None,328.4688121118934,None,right,1,0.3267990458843997,328.4688121118934,None,328.80936770433345,None,329.1094205290101,None,329.1094205290101,None,329.1094205290101,None,space,1.230069268643092,329.1094205290101,None,,,,,,,,,,,,,,,,,,,,,,,,,,,,,,,,,,,,,,,,,,,,,,,,,,,,,,,NENA_028,001,2021_Jan_27_1126,test7,3.2.4,99.97117444146842,
199,9,Tidningen avskedade dem journalist som publicerade falska fakta.,99,99,99,99,inc,1,no,,,0,8,8,8,0,0,0,0,,,,,,,,,,,,,,,,,,,,,,,,,,,,,,,,,,,,,,,,,,,,,,,,,,,,,,,,,,,,,,,,,,,,,,,,,,,,,,,,,,,,,,,,,,,,,,,,,,,,,,,,,,,,,,,,,,,,,,,,,,,,,,,,,,,,,,,,,,,,,,,,,,,,,,,,,,,,,,,,,,,,,,,,,,,,,,,,,,NENA_028,001,2021_Jan_27_1126,test7,3.2.4,99.97117444146842,
199,9,Tidningen avskedade dem journalist som publicerade falska fakta.,99,99,99,99,inc,1,no,,,0,8,8,8,,,,,,,,,,,,,,,,,,,,,,,,,,,,,,,,,,,,,,,,,,,,,,,,,,,,,,,,,,,,,,,,,,,,,,,,,,,,,,,,,,,,,,,,,,,,,,,,,,,,,,,,,,,,,,,,,,,,,,,,,,,,,,,,330.3591157527544,None,,,,,,,,,,,,,,,,,,,,,,,,,,,,,,,,,,,,,,,,,,,,,,,,,,,,,NENA_028,001,2021_Jan_27_1126,test7,3.2.4,99.97117444146842,
199,10,Bra jobbat!,99,99,99,99,cor,1,no,,,0,9,9,9,0,0,0,0,0,0,0,0,,,,,,,,,,,,,,,,,,,,,,,,,,,,,,,,,,,,,,,,,,,,,,,,,,,,,,,,,,,,,,,,,,,,,,,,,,,,,,,,,,,,,331.85938468712993,None,331.85938468712993,None,332.3594733697237,None,333.85969259052945,333.85969259052945,0.009901692217681557,None,333.85969259052945,333.85969259052945,334.34920190476714,None,334.8499262795867,None,334.8499262795867,None,left,1,1.153434999187084,334.8499262795867,None,336.0206038691267,None,336.3206868426787,None,336.3206868426787,None,336.3206868426787,None,space,1.4107011184914882,336.3206868426787,None,,,,,,,,,,,,,,,,,,,,,,,,,,,,,,,,,,,,,,,,,,,,,,,,,,,,,,,NENA_028,001,2021_Jan_27_1126,test7,3.2.4,99.97117444146842,
199,10,Bra jobbat!,99,99,99,99,cor,1,no,,,0,9,9,9,0,0,0,0,,,,,,,,,,,,,,,,,,,,,,,,,,,,,,,,,,,,,,,,,,,,,,,,,,,,,,,,,,,,,,,,,,,,,,,,,,,,,,,,,,,,,,,,,,,,,,,,,,,,,,,,,,,,,,,,,,,,,,,,,,,,,,,,,,,,,,,,,,,,,,,,,,,,,,,,,,,,,,,,,,,,,,,,,,,,,,,,,,NENA_028,001,2021_Jan_27_1126,test7,3.2.4,99.97117444146842,
199,10,Bra jobbat!,99,99,99,99,cor,1,no,,,0,9,9,9,,,,,,,,,,,,,,,,,,,,,,,,,,,,,,,,,,,,,,,,,,,,,,,,,,,,,,,,,,,,,,,,,,,,,,,,,,,,,,,,,,,,,,,,,,,,,,,,,,,,,,,,,,,,,,,,,,,,,,,,,,,,,,,,337.75039778874,None,,,,,,,,,,,,,,,,,,,,,,,,,,,,,,,,,,,,,,,,,,,,,,,,,,,,,NENA_028,001,2021_Jan_27_1126,test7,3.2.4,99.97117444146842,
,,,,,,,,,,,,,,,,,,,,,,,,,,,,,,,,,,,,,,,,,,,,,,,,,,,,,,,,,,,,,,,,,,,,,,,,,,,,,,,,,,,,,,,,,,,,,,,,,,,,,,,,,,,,,,,,,,,,,,,,,,,,,,,,,,,,,,,,,,,,,,,,,339.2506606291945,None,339.2506606291945,None,space,39.95190035732776,339.2506606291945,None,,,,,,,,,,,,,,,,,,,,,,,,,,,,,,,,,,,,,,,,,,,,,NENA_028,001,2021_Jan_27_1126,test7,3.2.4,99.97117444146842,
,,,,,,,,,,,,,,,,,,,,,,,,,,,,,,,,,,,,,,,,,,,,,,,,,,,,,,,,,,,,,,,,,,,,,,,,,,,,,,,,,,,,,,,,,,,,,,,,,,,,,,,,,,,,,,,,,,,,,,,,,,,,,,,,,,,,,,,,,,,,,,,,,,,,,,,,,379.2175526747342,None,379.2175526747342,None,space,6.056620227777785,379.2175526747342,None,,,,,,,,,,,,,,,,,,,,,,,,,,,,,,,,,,,,,NENA_028,001,2021_Jan_27_1126,test7,3.2.4,99.97117444146842,
,,,,,,,,,,,,,,,,,,,,,,,,,,,,,,,,,,,,,,,,,,,,,,,,,,,,,,,,,,,,,,,,,,,,,,,,,,,,,,,,,,,,,,,,,,,,,,,,,,,,,,,,,,,,,,,,,,,,,,,,,,,,,,,,,,,,,,,,,,,,,,,,,,,,,,,,,,,,,,,,,385.2886036292184,None,385.2886036292184,None,space,2.2175475430112783,385.2886036292184,None,,,,,,,,,,,,,,,,,,,,,,,,,,,,,NENA_028,001,2021_Jan_27_1126,test7,3.2.4,99.97117444146842,
,,,,,,,,,,,,,,,,,,,,,,,,,,,,,,,,,,,,,,,,,,,,,,,,,,,,,,,,,,,,,,,,,,,,,,,,,,,,,,,,,,,,,,,,,,,,,,,,,,,,,,,,,,,,,,,,,,,,,,,,,,,,,,,,,,,,,,,,,,,,,,,,,,,,,,,,,,,,,,,,,,,,,,,,,387.51900838427355,None,387.51900838427355,None,space,5.459002822768525,387.51900838427355,None,,,,,,,,,,,,,,,,,,,,,NENA_028,001,2021_Jan_27_1126,test7,3.2.4,99.97117444146842,
170,108,Hallonet lyser helt röd bland de gröna bladen. ,4,,0,,inc,1,no,174,199,,,,,,,,,,,,,0,0,0,0,,,,,,,,,,,,,,,,,,,,,,,,,,,,,,,,,,,,,,,,,,,,,,,,,,,,,,,,,,,,,,,,,,,,,,,,,,,,,,,,,,,,,,,,,,,,,398.490331993632,None,398.9910342378962,None,398.9910342378962,None,right,1,0.8188549778187735,398.9910342378962,None,,,,,,,,,,,,,399.8311740003801,None,,,,,,,,,,,,,,,,,,,,,,,,,,,,,,,,,393.080095616835,None,393.080095616835,None,393.5000238945868,None,398.00086084658597,398.00086084658597,0.009862883560344926,None,398.00086084658597,398.00086084658597,401.3314490607503,None,401.3314490607503,None,None,0.008075440182437887,None,,NENA_028,001,2021_Jan_27_1126,test7,3.2.4,99.97117444146842,
170,67,Valet är absolut nödvändigt för landets framtid.  ,4,,0,,cor,1,no,173,199,,,,,,,,,,,,,0,1,1,1,,,,,,,,,,,,,,,,,,,,,,,,,,,,,,,,,,,,,,,,,,,,,,,,,,,,,,,,,,,,,,,,,,,,,,,,,,,,,,,,,,,,,,,,,,,,,406.33168284282056,None,406.8323866907476,None,406.8323866907476,None,left,1,0.6091907240261207,406.8323866907476,None,,,,,,,,,,,,,407.45283705719976,None,,,,,,,,,,,,,,,,,,,,,,,,,,,,,,,,,401.341162418722,None,401.341162418722,None,401.8415410436837,None,405.8422203555574,405.8422203555574,0.009875712868961273,None,405.8422203555574,405.8422203555574,408.9527551420673,None,408.9527551420673,None,None,0.007885245686338749,None,,NENA_028,001,2021_Jan_27_1126,test7,3.2.4,99.97117444146842,
180,17,Skjortan som reseledaren inför denna speciella dag hade strukit kvällen innan var otroligt skrynklig på morgonen.  ,14,,0,,cor,1,no,181,199,,,,,,,,,,,,,0,2,2,2,,,,,,,,,,,,,,,,,,,,,,,,,,,,,,,,,,,,,,,,,,,,,,,,,,,,,,,,,,,,,,,,,,,,,,,,,,,,,,,,,,,,,,,,,,,,,418.4537735967069,None,418.9544938019999,None,418.9544938019999,None,left,1,0.5667872942394752,418.9544938019999,None,,,,,,,,,,,,,419.53435961385094,None,,,,,,,,,,,,,,,,,,,,,,,,,,,,,,,,,408.9627632533966,None,408.9627632533966,None,409.4628294847016,None,417.96429635573895,417.96429635573895,0.00987346774127218,None,417.96429635573895,417.96429635573895,421.03483962242024,None,421.03483962242024,None,None,0.007630904648976866,None,,NENA_028,001,2021_Jan_27_1126,test7,3.2.4,99.97117444146842,
130,15,Frisörer klipper ofta hår med en sax.,3,,4,,cor,1,no,131,132,,,,,,,,,,,,,0,3,3,3,,,,,,,,,,,,,,,,,,,,,,,,,,,,,,,,,,,,,,,,,,,,,,,,,,,,,,,,,,,,,,,,,,,,,,,,,,,,,,,,,,,,,,,,,,,,,426.0350897618582,None,426.5358202306006,None,426.5358202306006,None,left,1,0.6813257550620619,426.5358202306006,None,,,,,,,,,,,,,427.2356086432328,None,,,,,,,,,,,,,,,,,,,,,,,,,,,,,,,,,421.04484580935514,None,421.04484580935514,None,421.544958226169,None,425.54561829408067,425.54561829408067,0.009872826274659019,None,425.54561829408067,425.54561829408067,428.7361637032576,None,428.7361637032576,None,None,0.0077069183007552056,None,,NENA_028,001,2021_Jan_27_1126,test7,3.2.4,99.97117444146842,
150,27,Tjejen har vänner men föräldrarna borde inte veta om dem. ,6,,7,,cor,1,no,155,156,,,,,,,,,,,,,0,4,4,4,,,,,,,,,,,,,,,,,,,,,,,,,,,,,,,,,,,,,,,,,,,,,,,,,,,,,,,,,,,,,,,,,,,,,,,,,,,,,,,,,,,,,,,,,,,,,435.2366667404358,None,435.7374090762869,None,435.7374090762869,None,left,1,1.1434345533689338,435.7374090762869,None,,,,,,,,,,,,,436.8973767592588,None,,,,,,,,,,,,,,,,,,,,,,,,,,,,,,,,,428.7461926622136,None,428.7461926622136,None,429.24626466670543,None,434.74722285566986,434.74722285566986,0.009876675067062024,None,434.74722285566986,434.74722285566986,438.3978381653327,None,438.3978381653327,None,None,0.008081213372861384,None,,NENA_028,001,2021_Jan_27_1126,test7,3.2.4,99.97117444146842,
160,30,Den torra sommaren orsakade en kraftig aspblomning som de flesta invånarna i de södra stadsdelarna hade inte upplevt förut.,16,,17,,inc,1,no,163,164,,,,,,,,,,,,,0,5,5,5,,,,,,,,,,,,,,,,,,,,,,,,,,,,,,,,,,,,,,,,,,,,,,,,,,,,,,,,,,,,,,,,,,,,,,,,,,,,,,,,,,,,,,,,,,,,,449.39912619581173,None,449.8998435145122,None,449.8998435145122,None,right,1,0.7966711793742434,449.8998435145122,None,,,,,,,,,,,,,450.71020228291036,None,,,,,,,,,,,,,,,,,,,,,,,,,,,,,,,,,438.4078651998925,None,438.4078651998925,None,438.9078923018051,None,448.90962939014844,448.90962939014844,0.009878278729956946,None,448.90962939014844,448.90962939014844,452.21015853497045,None,452.21015853497045,None,None,0.007982748431459186,None,,NENA_028,001,2021_Jan_27_1126,test7,3.2.4,99.97117444146842,
160,47,Många villaägare i Stockholms skärgård anmäler inbrott av ett slag som dagens otroligt billiga och opålitliga larmsystem inte kan hindra.,18,,19,,cor,1,no,161,162,,,,,,,,,,,,,0,6,6,6,,,,,,,,,,,,,,,,,,,,,,,,,,,,,,,,,,,,,,,,,,,,,,,,,,,,,,,,,,,,,,,,,,,,,,,,,,,,,,,,,,,,,,,,,,,,,463.7115965079911,None,464.2123224864745,None,464.2123224864745,None,left,1,0.3079037198895094,464.2123224864745,None,,,,,,,,,,,,,464.53271233066425,None,,,,,,,,,,,,,,,,,,,,,,,,,,,,,,,,,452.2202628661116,None,452.2202628661116,None,452.7203515487063,None,463.22216192447286,463.22216192447286,0.009877316533675184,None,463.22216192447286,463.22216192447286,466.0326111715698,None,466.0326111715698,None,None,0.007883321291956236,None,,NENA_028,001,2021_Jan_27_1126,test7,3.2.4,99.97117444146842,
180,31,Munstycket som bara såldes i en eller två affärer i staden var otroligt dyrt och trumpetaren gick hem tomhänt.,14,,0,,cor,1,no,181,199,,,,,,,,,,,,,0,7,7,7,,,,,,,,,,,,,,,,,,,,,,,,,,,,,,,,,,,,,,,,,,,,,,,,,,,,,,,,,,,,,,,,,,,,,,,,,,,,,,,,,,,,,,,,,,,,,477.03393768997466,None,477.5346473110885,None,477.5346473110885,None,left,1,0.7612452896391915,477.5346473110885,None,,,,,,,,,,,,,478.31455731990627,None,,,,,,,,,,,,,,,,,,,,,,,,,,,,,,,,,466.0426629025469,None,466.0426629025469,None,466.5427275301872,None,476.5444588453438,476.5444588453438,0.009871543345070677,None,476.5444588453438,476.5444588453438,479.8150463089918,None,479.8150463089918,None,None,0.00799301187726087,None,,NENA_028,001,2021_Jan_27_1126,test7,3.2.4,99.97117444146842,
150,65,Poeten skrev verk som allmänheten inte fick se.  ,6,,7,,cor,1,no,151,152,,,,,,,,,,,,,0,8,8,8,,,,,,,,,,,,,,,,,,,,,,,,,,,,,,,,,,,,,,,,,,,,,,,,,,,,,,,,,,,,,,,,,,,,,,,,,,,,,,,,,,,,,,,,,,,,,485.3153498504262,None,485.8160915448125,None,485.8160915448125,None,left,1,1.3114956054796494,485.8160915448125,None,,,,,,,,,,,,,487.1460510907955,None,,,,,,,,,,,,,,,,,,,,,,,,,,,,,,,,,479.82503293123136,None,479.82503293123136,None,480.32509884180126,None,484.82590500346214,484.82590500346214,0.009876033602267853,None,484.82590500346214,484.82590500346214,488.6465227603152,None,488.6465227603152,None,None,0.008189300293452106,None,,NENA_028,001,2021_Jan_27_1126,test7,3.2.4,99.97117444146842,
170,76,Pianot är redan stämd och mikrofonerna är på plats. ,4,,0,,inc,1,no,174,199,,,,,,,,,,,,,0,9,9,9,,,,,,,,,,,,,,,,,,,,,,,,,,,,,,,,,,,,,,,,,,,,,,,,,,,,,,,,,,,,,,,,,,,,,,,,,,,,,,,,,,,,,,,,,,,,,494.646993563857,None,495.14768137514784,None,495.14768137514784,None,right,1,0.4277544765463972,495.14768137514784,None,,,,,,,,,,,,,495.58755698217374,None,,,,,,,,,,,,,,,,,,,,,,,,,,,,,,,,,488.65650809962335,None,488.65650809962335,None,489.15664842018214,None,494.15751664362233,494.15751664362233,0.009876033602267853,None,494.15751664362233,494.15751664362233,497.08802833096195,None,497.08802833096195,None,None,0.008507787873895722,None,,NENA_028,001,2021_Jan_27_1126,test7,3.2.4,99.97117444146842,
170,100,Mordet var väldigt hemsk och hela landet sörjde.,4,,0,,inc,1,no,174,199,,,,,,,,,,,,,0,10,10,10,,,,,,,,,,,,,,,,,,,,,,,,,,,,,,,,,,,,,,,,,,,,,,,,,,,,,,,,,,,,,,,,,,,,,,,,,,,,,,,,,,,,,,,,,,,,,502.58835336148786,None,503.0890357203216,None,503.0890357203216,None,right,1,0.7501540318826301,503.0890357203216,None,,,,,,,,,,,,,503.84894579970114,None,,,,,,,,,,,,,,,,,,,,,,,,,,,,,,,,,497.0980229715178,None,497.0980229715178,None,497.59810363579436,None,502.098879648579,502.098879648579,0.009875392137473682,None,502.098879648579,502.098879648579,505.34944056197526,None,505.34944056197526,None,None,0.007582153277326142,None,,NENA_028,001,2021_Jan_27_1126,test7,3.2.4,99.97117444146842,
130,1,Hönor lägger ofta ägg tidigt på morgonen.,3,,4,,cor,1,no,131,132,,,,,,,,,,,,,0,11,11,11,,,,,,,,,,,,,,,,,,,,,,,,,,,,,,,,,,,,,,,,,,,,,,,,,,,,,,,,,,,,,,,,,,,,,,,,,,,,,,,,,,,,,,,,,,,,,510.34970609658285,None,510.8504182835595,None,510.8504182835595,None,left,1,0.3966353856067144,510.8504182835595,None,,,,,,,,,,,,,511.26024829201833,None,,,,,,,,,,,,,,,,,,,,,,,,,,,,,,,,,505.35945252209694,None,505.35945252209694,None,505.859540563225,None,509.86018010424505,509.86018010424505,0.00987378847275977,None,509.86018010424505,509.86018010424505,512.7607504311458,None,512.7607504311458,None,None,0.007657525464310311,None,,NENA_028,001,2021_Jan_27_1126,test7,3.2.4,99.97117444146842,
150,60,Hästarna hade stamtavlor men ägarna inte har vetat om dem. ,6,,7,,inc,1,no,157,158,,,,,,,,,,,,,0,12,12,12,,,,,,,,,,,,,,,,,,,,,,,,,,,,,,,,,,,,,,,,,,,,,,,,,,,,,,,,,,,,,,,,,,,,,,,,,,,,,,,,,,,,,,,,,,,,,519.2612582793145,None,519.7620031810266,None,519.7620031810266,None,right,1,0.3888133563359588,519.7620031810266,None,,,,,,,,,,,,,520.1623661221593,None,,,,,,,,,,,,,,,,,,,,,,,,,,,,,,,,,512.7707604668713,None,512.7707604668713,None,513.2708087371439,None,518.7718066969637,518.7718066969637,0.009871864078377257,None,518.7718066969637,518.7718066969637,521.6622854899564,None,521.6622854899564,None,None,0.00791763969209569,None,,NENA_028,001,2021_Jan_27_1126,test7,3.2.4,99.97117444146842,
150,76,Bröderna tog leksaken och lillasystern inte hade sett den.  ,6,,7,,inc,1,no,157,158,,,,,,,,,,,,,0,13,13,13,,,,,,,,,,,,,,,,,,,,,,,,,,,,,,,,,,,,,,,,,,,,,,,,,,,,,,,,,,,,,,,,,,,,,,,,,,,,,,,,,,,,,,,,,,,,,527.6626834871722,None,528.1634210120328,None,528.1634210120328,None,right,1,0.5951609132025624,528.1634210120328,None,,,,,,,,,,,,,528.7736618149438,None,,,,,,,,,,,,,,,,,,,,,,,,,,,,,,,,,521.6723045061981,None,521.6723045061981,None,522.172348606945,None,527.1732418475358,527.1732418475358,0.009875392135654693,None,527.1732418475358,527.1732418475358,530.2737569442637,None,530.2737569442637,None,None,0.008112003710266436,None,,NENA_028,001,2021_Jan_27_1126,test7,3.2.4,99.97117444146842,
150,15,Snickaren använde trä men kunden ville inte köpa den.  ,6,,7,,cor,1,no,155,156,,,,,,,,,,,,,0,14,14,14,,,,,,,,,,,,,,,,,,,,,,,,,,,,,,,,,,,,,,,,,,,,,,,,,,,,,,,,,,,,,,,,,,,,,,,,,,,,,,,,,,,,,,,,,,,,,536.2741956745349,None,536.7748940700048,None,536.7748940700048,None,right,0,0.911479376405623,536.7748940700048,None,,,,,,,,,,,,,537.7047953709289,None,,,,,,,,,,,,,,,,,,,,,,,,,,,,,,,,,530.2837833373587,None,530.2837833373587,None,530.7838033831531,None,535.7847046420602,535.7847046420602,0.009886938514682697,None,535.7847046420602,535.7847046420602,539.2053058491059,None,539.2053058491059,None,None,0.008389437502046349,None,,NENA_028,001,2021_Jan_27_1126,test7,3.2.4,99.97117444146842,
170,114,Sjön är ganska förorenat till följd av ansvarslös båttrafik. ,4,,0,,inc,1,no,172,199,,,,,,,,,,,,,0,15,15,15,,,,,,,,,,,,,,,,,,,,,,,,,,,,,,,,,,,,,,,,,,,,,,,,,,,,,,,,,,,,,,,,,,,,,,,,,,,,,,,,,,,,,,,,,,,,,545.2057378439904,None,545.7064468236395,None,545.7064468236395,None,right,1,5.243527533781162,545.7064468236395,None,,,,,,,,,,,,,550.967107898653,None,,,,,,,,,,,,,,,,,,,,,,,,,,,,,,,,,539.2153232616847,None,539.2153232616847,None,539.7153866063936,None,544.7162445663862,544.7162445663862,0.009875392137473682,None,544.7162445663862,544.7162445663862,552.4675933596776,None,552.4675933596776,None,None,0.008257937091912027,None,,NENA_028,001,2021_Jan_27_1126,test7,3.2.4,99.97117444146842,
160,34,Den nya medicinen mildrar de flesta typer av huvudvärk som många andra liknande substanser på marknaden kan inte klara av.,17,,18,,inc,1,no,163,164,,,,,,,,,,,,,0,16,16,16,,,,,,,,,,,,,,,,,,,,,,,,,,,,,,,,,,,,,,,,,,,,,,,,,,,,,,,,,,,,,,,,,,,,,,,,,,,,,,,,,,,,,,,,,,,,,563.9690011838238,None,564.469691881709,None,564.469691881709,None,right,1,0.8800302515101066,564.469691881709,None,,,,,,,,,,,,,565.3597690852794,None,,,,,,,,,,,,,,,,,,,,,,,,,,,,,,,,,552.4776082063954,None,552.4776082063954,None,552.97768983287,None,563.4795309989759,563.4795309989759,0.00987442993937293,None,563.4795309989759,563.4795309989759,566.860098028745,None,566.860098028745,None,None,0.00830732993017591,None,,NENA_028,001,2021_Jan_27_1126,test7,3.2.4,99.97117444146842,
160,28,Det lilla rådjuret söker en lugn plats som de högljudda arbetarna från den kommunala parkförvaltningen kan inte hitta.,16,,17,,inc,1,no,163,164,,,,,,,,,,,,,0,17,17,17,,,,,,,,,,,,,,,,,,,,,,,,,,,,,,,,,,,,,,,,,,,,,,,,,,,,,,,,,,,,,,,,,,,,,,,,,,,,,,,,,,,,,,,,,,,,,577.3613204693856,None,577.8620089221431,None,577.8620089221431,None,right,1,0.9754126306470425,577.8620089221431,None,,,,,,,,,,,,,578.8522304233584,None,,,,,,,,,,,,,,,,,,,,,,,,,,,,,,,,,566.8701144791257,None,566.8701144791257,None,567.3701970677967,None,576.8718310405757,576.8718310405757,0.0098731470079656,None,576.8718310405757,576.8718310405757,580.352404132191,None,580.352404132191,None,None,0.008193469817342702,None,,NENA_028,001,2021_Jan_27_1126,test7,3.2.4,99.97117444146842,
180,36,Biobesöket som de alla hade sett fram emot så mycket den här veckan blev ganska tråkig av någon anledning. ,16,,0,,inc,1,no,182,199,,,,,,,,,,,,,0,18,18,18,,,,,,,,,,,,,,,,,,,,,,,,,,,,,,,,,,,,,,,,,,,,,,,,,,,,,,,,,,,,,,,,,,,,,,,,,,,,,,,,,,,,,,,,,,,,,591.3537470079655,None,591.8544328948601,None,591.8544328948601,None,right,1,0.9504945858716383,591.8544328948601,None,,,,,,,,,,,,,592.8147056587832,None,,,,,,,,,,,,,,,,,,,,,,,,,,,,,,,,,580.362392037362,None,580.362392037362,None,580.8625249810693,None,590.8642752194528,590.8642752194528,0.009869298215562594,None,590.8642752194528,590.8642752194528,594.314837672366,None,594.314837672366,None,None,0.008188979561964516,None,,NENA_028,001,2021_Jan_27_1126,test7,3.2.4,99.97117444146842,
150,73,Gästerna hade gåvor som värdarna inte ville ta emot.  ,6,,7,,cor,1,no,151,152,,,,,,,,,,,,,0,19,19,19,,,,,,,,,,,,,,,,,,,,,,,,,,,,,,,,,,,,,,,,,,,,,,,,,,,,,,,,,,,,,,,,,,,,,,,,,,,,,,,,,,,,,,,,,,,,,600.3253015448727,None,600.826010845255,None,600.826010845255,None,left,1,0.5948712915687793,600.826010845255,None,,,,,,,,,,,,,601.4359007665835,None,,,,,,,,,,,,,,,,,,,,,,,,,,,,,,,,,594.3248239738723,None,594.3248239738723,None,594.8249434468062,None,599.8358050599427,599.8358050599427,0.009870260413663345,None,599.8358050599427,599.8358050599427,602.9363599275279,None,602.9363599275279,None,None,0.008550124590328778,None,,NENA_028,001,2021_Jan_27_1126,test7,3.2.4,99.97117444146842,
170,98,Skyskrapan var ganska högt men det fanns några högre. ,4,,0,,inc,1,no,172,199,,,,,,,,,,,,,0,20,20,20,,,,,,,,,,,,,,,,,,,,,,,,,,,,,,,,,,,,,,,,,,,,,,,,,,,,,,,,,,,,,,,,,,,,,,,,,,,,,,,,,,,,,,,,,,,,,608.9367957712029,None,609.4374826202957,None,609.4374826202957,None,right,1,0.38302445169938437,609.4374826202957,None,,,,,,,,,,,,,609.8372534888504,None,,,,,,,,,,,,,,,,,,,,,,,,,,,,,,,,,602.946360020539,None,602.946360020539,None,603.4464381189546,None,608.4472656093394,608.4472656093394,0.009877637266981765,None,608.4472656093394,608.4472656093394,611.3378146427953,None,611.3378146427953,None,None,0.0076238485307840165,None,,NENA_028,001,2021_Jan_27_1126,test7,3.2.4,99.97117444146842,
140,56,Bin samlar ofta honung från omgivande blomsteräng.,3,,4,,inc,1,no,135,136,,,,,,,,,,,,,0,21,21,21,,,,,,,,,,,,,,,,,,,,,,,,,,,,,,,,,,,,,,,,,,,,,,,,,,,,,,,,,,,,,,,,,,,,,,,,,,,,,,,,,,,,,,,,,,,,,616.3380583675798,None,616.8387551593869,None,616.8387551593869,None,right,1,0.7576232551728026,616.8387551593869,None,,,,,,,,,,,,,617.6086233478663,None,,,,,,,,,,,,,,,,,,,,,,,,,,,,,,,,,611.347815377273,None,611.347815377273,None,611.8479146440468,None,615.8485859376024,615.8485859376024,0.009876675067062024,None,615.8485859376024,615.8485859376024,619.1091732761655,None,619.1091732761655,None,None,0.00774091596758808,None,,NENA_028,001,2021_Jan_27_1126,test7,3.2.4,99.97117444146842,
150,21,Astronomen upptäckte en planet som forskarna inte hade känt till.  ,6,,7,,cor,1,no,151,152,,,,,,,,,,,,,0,22,22,22,,,,,,,,,,,,,,,,,,,,,,,,,,,,,,,,,,,,,,,,,,,,,,,,,,,,,,,,,,,,,,,,,,,,,,,,,,,,,,,,,,,,,,,,,,,,,625.6096445608064,None,626.1103878588556,None,626.1103878588556,None,left,1,0.5259336448925751,626.1103878588556,None,,,,,,,,,,,,,626.650707007143,None,,,,,,,,,,,,,,,,,,,,,,,,,,,,,,,,,619.1191797838319,None,619.1191797838319,None,619.6192620517713,None,625.1202224858653,625.1202224858653,0.00987410920606635,None,625.1202224858653,625.1202224858653,628.1507187459614,None,628.1507187459614,None,None,0.00800135092686105,None,,NENA_028,001,2021_Jan_27_1126,test7,3.2.4,99.97117444146842,
180,40,Fatet som med sina präglade mönster runt kanten såg väldigt inbjudande ut var otroligt kladdig efter kalaset.  ,15,,0,,inc,1,no,182,199,,,,,,,,,,,,,0,23,23,23,,,,,,,,,,,,,,,,,,,,,,,,,,,,,,,,,,,,,,,,,,,,,,,,,,,,,,,,,,,,,,,,,,,,,,,,,,,,,,,,,,,,,,,,,,,,,638.151846089354,None,638.6525521824087,None,638.6525521824087,None,right,1,0.9032166603974474,638.6525521824087,None,,,,,,,,,,,,,639.5724023617468,None,,,,,,,,,,,,,,,,,,,,,,,,,,,,,,,,,628.160720121904,None,628.160720121904,None,628.6608091252301,None,637.6623787911003,637.6623787911003,0.009875071405986091,None,637.6623787911003,637.6623787911003,641.0729615912954,None,641.0729615912954,None,None,0.00783970164047787,None,,NENA_028,001,2021_Jan_27_1126,test7,3.2.4,99.97117444146842,
150,10,Syskonen fick godis som systern ville inte ha.  ,6,,7,,inc,1,no,153,154,,,,,,,,,,,,,0,24,24,24,,,,,,,,,,,,,,,,,,,,,,,,,,,,,,,,,,,,,,,,,,,,,,,,,,,,,,,,,,,,,,,,,,,,,,,,,,,,,,,,,,,,,,,,,,,,,646.573282773029,None,647.0740193356914,None,647.0740193356914,None,right,1,0.4735349010097707,647.0740193356914,None,,,,,,,,,,,,,647.5638557972916,None,,,,,,,,,,,,,,,,,,,,,,,,,,,,,,,,,641.0829613635751,None,641.0829613635751,None,641.5830542156955,None,646.0838360016687,646.0838360016687,0.009877316531856195,None,646.0838360016687,646.0838360016687,649.0643418997828,None,649.0643418997828,None,None,0.007983069161127787,None,,NENA_028,001,2021_Jan_27_1126,test7,3.2.4,99.97117444146842,
170,16,Fartyget är kraftigt skadad och måste bogseras.  ,4,,0,,inc,1,no,174,199,,,,,,,,,,,,,0,25,25,25,,,,,,,,,,,,,,,,,,,,,,,,,,,,,,,,,,,,,,,,,,,,,,,,,,,,,,,,,,,,,,,,,,,,,,,,,,,,,,,,,,,,,,,,,,,,,654.064579209914,None,654.5652981322773,None,654.5652981322773,None,right,1,0.46214760696420853,654.5652981322773,None,,,,,,,,,,,,,655.0451001503907,None,,,,,,,,,,,,,,,,,,,,,,,,,,,,,,,,,649.0743432757272,None,649.0743432757272,None,649.5744656352535,None,653.5751520032491,653.5751520032491,0.009876354335574433,None,653.5751520032491,653.5751520032491,656.545646871364,None,656.545646871364,None,None,0.008047857169003692,None,,NENA_028,001,2021_Jan_27_1126,test7,3.2.4,99.97117444146842,
160,24,En polisassistent från förorten arresterade tre misstänkta smugglare som de äldre kollegorna på polisstationen hade inte upptäckt.,15,,16,,inc,1,no,163,164,,,,,,,,,,,,,0,26,26,26,,,,,,,,,,,,,,,,,,,,,,,,,,,,,,,,,,,,,,,,,,,,,,,,,,,,,,,,,,,,,,,,,,,,,,,,,,,,,,,,,,,,,,,,,,,,,666.5467722903622,None,667.047482873676,None,667.047482873676,None,right,1,0.3235792102332198,667.047482873676,None,,,,,,,,,,,,,667.3872244465028,None,,,,,,,,,,,,,,,,,,,,,,,,,,,,,,,,,656.5556690949334,None,656.5556690949334,None,657.0557282701184,None,666.0572847859485,666.0572847859485,0.009867694552667672,None,666.0572847859485,666.0572847859485,668.8877904114382,None,668.8877904114382,None,None,0.007776196565828286,None,,NENA_028,001,2021_Jan_27_1126,test7,3.2.4,99.97117444146842,
180,25,Pennan som hade använts flera gånger tidigare på de många lektionerna var återigen vässad och matematikboken låg på bordet.,14,,0,,cor,1,no,181,199,,,,,,,,,,,,,0,27,27,27,,,,,,,,,,,,,,,,,,,,,,,,,,,,,,,,,,,,,,,,,,,,,,,,,,,,,,,,,,,,,,,,,,,,,,,,,,,,,,,,,,,,,,,,,,,,,679.8790847314876,None,680.3797853720871,None,680.3797853720871,None,left,1,0.5590518627996062,680.3797853720871,None,,,,,,,,,,,,,680.9496218721752,None,,,,,,,,,,,,,,,,,,,,,,,,,,,,,,,,,668.8977465640701,None,668.8977465640701,None,669.3978804699755,None,679.3896036417273,679.3896036417273,0.009876354331936454,None,679.3896036417273,679.3896036417273,682.4501169551826,None,682.4501169551826,None,None,0.007694088993957848,None,,NENA_028,001,2021_Jan_27_1126,test7,3.2.4,99.97117444146842,
160,2,Den höga ljudnivån gav allvarliga skador på husgrunden som de flesta boende i de gamla radhusen kunde inte upptäcka direkt.,17,,18,,inc,1,no,163,164,,,,,,,,,,,,,0,28,28,28,,,,,,,,,,,,,,,,,,,,,,,,,,,,,,,,,,,,,,,,,,,,,,,,,,,,,,,,,,,,,,,,,,,,,,,,,,,,,,,,,,,,,,,,,,,,,693.951502969504,None,694.4522174016101,None,694.4522174016101,None,right,1,0.3582385488007276,694.4522174016101,None,,,,,,,,,,,,,694.8220350426136,None,,,,,,,,,,,,,,,,,,,,,,,,,,,,,,,,,682.4601205762547,None,682.4601205762547,None,682.9602150320361,None,693.4620411237056,693.4620411237056,0.009876033600448864,None,693.4620411237056,693.4620411237056,696.3225573879012,None,696.3225573879012,None,None,0.0077094841635698685,None,,NENA_028,001,2021_Jan_27_1126,test7,3.2.4,99.97117444146842,
170,60,Lammet är verkligen gullig och kallas Maja.,4,,0,,inc,1,no,174,199,,,,,,,,,,,,,0,29,29,29,,,,,,,,,,,,,,,,,,,,,,,,,,,,,,,,,,,,,,,,,,,,,,,,,,,,,,,,,,,,,,,,,,,,,,,,,,,,,,,,,,,,,,,,,,,,,701.3228007919524,None,701.8234905276413,None,701.8234905276413,None,right,1,0.7787495978809602,701.8234905276413,None,,,,,,,,,,,,,702.6133756443915,None,,,,,,,,,,,,,,,,,,,,,,,,,,,,,,,,,696.3325600467751,None,696.3325600467751,None,696.832611203642,None,700.8333273997787,700.8333273997787,0.009875071405986091,None,700.8333273997787,700.8333273997787,704.1138854811037,None,704.1138854811037,None,None,0.007790629537339555,None,,NENA_028,001,2021_Jan_27_1126,test7,3.2.4,99.97117444146842,
150,16,Forskaren gav en föreläsning men studenterna inte kunde följa den.  ,6,,7,,inc,1,no,157,158,,,,,,,,,,,,,0,30,30,30,,,,,,,,,,,,,,,,,,,,,,,,,,,,,,,,,,,,,,,,,,,,,,,,,,,,,,,,,,,,,,,,,,,,,,,,,,,,,,,,,,,,,,,,,,,,,710.6143769719047,None,711.115114176032,None,711.115114176032,None,right,1,0.3509062783759873,711.115114176032,None,,,,,,,,,,,,,711.4753842458022,None,,,,,,,,,,,,,,,,,,,,,,,,,,,,,,,,,704.1239044973454,None,704.1239044973454,None,704.6239713701152,None,710.1249372566645,710.1249372566645,0.009876354333755444,None,710.1249372566645,710.1249372566645,712.9754193981065,None,712.9754193981065,None,None,0.008048819367104443,None,,NENA_028,001,2021_Jan_27_1126,test7,3.2.4,99.97117444146842,
140,74,Journalister tar ofta bilder av framstående människa.,3,,4,,inc,1,no,137,138,,,,,,,,,,,,,0,31,31,31,,,,,,,,,,,,,,,,,,,,,,,,,,,,,,,,,,,,,,,,,,,,,,,,,,,,,,,,,,,,,,,,,,,,,,,,,,,,,,,,,,,,,,,,,,,,,717.9856571540558,None,718.4863869813316,None,718.4863869813316,None,right,1,5.003264738230428,718.4863869813316,None,,,,,,,,,,,,,723.506937929561,None,,,,,,,,,,,,,,,,,,,,,,,,,,,,,,,,,712.9854413009425,None,712.9854413009425,None,713.485512343238,None,717.4962235327357,717.4962235327357,0.009850054253547569,None,717.4962235327357,717.4962235327357,725.0075099884183,None,725.0075099884183,None,None,0.007767857516228105,None,,NENA_028,001,2021_Jan_27_1126,test7,3.2.4,99.97117444146842,
170,35,Strandbadet var helt tomt och solen strålade.  ,4,,0,,cor,1,no,173,199,,,,,,,,,,,,,0,32,32,32,,,,,,,,,,,,,,,,,,,,,,,,,,,,,,,,,,,,,,,,,,,,,,,,,,,,,,,,,,,,,,,,,,,,,,,,,,,,,,,,,,,,,,,,,,,,,730.0077691083725,None,730.5084607684557,None,730.5084607684557,None,right,0,14.860758385315421,730.5084607684557,None,,,,,,,,,,,,,745.3814336174701,None,,,,,,,,,,,,,,,,,,,,,,,,,,,,,,,,,725.0175132887571,None,725.0175132887571,None,725.5175987640241,None,729.5182751893035,729.5182751893035,0.009872505541352439,None,729.5182751893035,729.5182751893035,746.8813071204899,None,746.8813071204899,None,None,0.007873699309129734,None,,NENA_028,001,2021_Jan_27_1126,test7,3.2.4,99.97117444146842,
140,16,Pirater hittar ibland skatter nedgrävda i market.,3,,4,,inc,1,no,131,132,,,,,,,,,,,,,0,33,33,33,,,,,,,,,,,,,,,,,,,,,,,,,,,,,,,,,,,,,,,,,,,,,,,,,,,,,,,,,,,,,,,,,,,,,,,,,,,,,,,,,,,,,,,,,,,,,751.8815691270402,None,752.3822409016948,None,752.3822409016948,None,right,1,1.6826600031236012,752.3822409016948,None,,,,,,,,,,,,,754.0823263128159,None,,,,,,,,,,,,,,,,,,,,,,,,,,,,,,,,,746.8913235708706,None,746.8913235708706,None,747.3913974997604,None,751.3920886787446,751.3920886787446,0.009875392135654693,None,751.3920886787446,751.3920886787446,755.5828300556062,None,755.5828300556062,None,None,0.008127078148390865,None,,NENA_028,001,2021_Jan_27_1126,test7,3.2.4,99.97117444146842,
170,40,Päronet är för besk för barnen.  ,4,,0,,inc,1,no,174,199,,,,,,,,,,,,,0,34,34,34,,,,,,,,,,,,,,,,,,,,,,,,,,,,,,,,,,,,,,,,,,,,,,,,,,,,,,,,,,,,,,,,,,,,,,,,,,,,,,,,,,,,,,,,,,,,,760.0829504586645,None,760.5836982469709,None,760.5836982469709,None,right,1,1.7929805081112136,760.5836982469709,None,,,,,,,,,,,,,762.3937497534362,None,,,,,,,,,,,,,,,,,,,,,,,,,,,,,,,,,755.592743230055,None,755.592743230055,None,756.0928588541947,None,759.5935072153634,759.5935072153634,0.009876354333755444,None,759.5935072153634,759.5935072153634,763.8942342522645,None,763.8942342522645,None,None,0.00826146515282744,None,,NENA_028,001,2021_Jan_27_1126,test7,3.2.4,99.97117444146842,
160,7,Den snälla grannen bakade saftiga bullar med blåbär som den gamla tanten med mycket dålig syn inte kunde se.,17,,18,,cor,1,no,161,162,,,,,,,,,,,,,0,35,35,35,,,,,,,,,,,,,,,,,,,,,,,,,,,,,,,,,,,,,,,,,,,,,,,,,,,,,,,,,,,,,,,,,,,,,,,,,,,,,,,,,,,,,,,,,,,,,774.8955460169645,None,775.3962796930327,None,775.3962796930327,None,left,1,0.7640603606123477,775.3962796930327,None,,,,,,,,,,,,,776.1763850280686,None,,,,,,,,,,,,,,,,,,,,,,,,,,,,,,,,,763.9042596831614,None,763.9042596831614,None,764.4043156510188,None,774.4060498527679,774.4060498527679,0.009871222611764097,None,774.4060498527679,774.4060498527679,777.6765789430632,None,777.6765789430632,None,None,0.008196356411644956,None,,NENA_028,001,2021_Jan_27_1126,test7,3.2.4,99.97117444146842,
170,101,Boken är ganska sliten efter sommaren på stranden. ,4,,0,,cor,1,no,171,199,,,,,,,,,,,,,0,36,36,36,,,,,,,,,,,,,,,,,,,,,,,,,,,,,,,,,,,,,,,,,,,,,,,,,,,,,,,,,,,,,,,,,,,,,,,,,,,,,,,,,,,,,,,,,,,,,783.176978383578,None,783.6776915327528,None,783.6776915327528,None,left,1,1.2104195793199324,783.6776915327528,None,,,,,,,,,,,,,784.8977067932146,None,,,,,,,,,,,,,,,,,,,,,,,,,,,,,,,,,777.6865854507296,None,777.6865854507296,None,778.1867129419816,None,782.6875268012272,782.6875268012272,0.009875071402348112,None,782.6875268012272,782.6875268012272,786.3981406162751,None,786.3981406162751,None,None,0.0086049698820716,None,,NENA_028,001,2021_Jan_27_1126,test7,3.2.4,99.97117444146842,
170,9,Processen är mycket skadlig för miljön.  ,4,,0,,cor,1,no,171,199,,,,,,,,,,,,,0,37,37,37,,,,,,,,,,,,,,,,,,,,,,,,,,,,,,,,,,,,,,,,,,,,,,,,,,,,,,,,,,,,,,,,,,,,,,,,,,,,,,,,,,,,,,,,,,,,,790.898325486608,None,791.3989956575997,None,791.3989956575997,None,left,1,1.4890500250003242,791.3989956575997,None,,,,,,,,,,,,,792.8990513047238,None,,,,,,,,,,,,,,,,,,,,,,,,,,,,,,,,,786.408144878812,None,786.408144878812,None,786.9082402967933,None,790.4088366992628,790.4088366992628,0.009878599465082516,None,790.4088366992628,790.4088366992628,794.3995303510968,None,794.3995303510968,None,None,0.007540137294199667,None,,NENA_028,001,2021_Jan_27_1126,test7,3.2.4,99.97117444146842,
150,50,Riksdagen fattar beslut som kommunerna kan inte genomföra.  ,6,,7,,inc,1,no,153,154,,,,,,,,,,,,,0,38,38,38,,,,,,,,,,,,,,,,,,,,,,,,,,,,,,,,,,,,,,,,,,,,,,,,,,,,,,,,,,,,,,,,,,,,,,,,,,,,,,,,,,,,,,,,,,,,,799.8998778329124,None,800.4005820015709,None,800.4005820015709,None,right,1,0.37540127670945367,800.4005820015709,None,,,,,,,,,,,,,800.7904284379574,None,,,,,,,,,,,,,,,,,,,,,,,,,,,,,,,,,794.4095394246242,None,794.4095394246242,None,794.9096172023064,None,799.4103823101805,799.4103823101805,0.009876033602267853,None,799.4103823101805,799.4103823101805,802.2909013904085,None,802.2909013904085,None,None,0.0077345013141894015,None,,NENA_028,001,2021_Jan_27_1126,test7,3.2.4,99.97117444146842,
150,47,Djuren fick rättigheter men djurrättsaktivisterna hade inte krävt dessa från början. ,6,,7,,cor,1,no,155,156,,,,,,,,,,,,,0,39,39,39,,,,,,,,,,,,,,,,,,,,,,,,,,,,,,,,,,,,,,,,,,,,,,,,,,,,,,,,,,,,,,,,,,,,,,,,,,,,,,,,,,,,,,,,,,,,,809.2814779106566,None,809.7822141525876,None,809.7822141525876,None,left,1,0.8332526690574014,809.7822141525876,None,,,,,,,,,,,,,810.6423532030449,None,,,,,,,,,,,,,,,,,,,,,,,,,,,,,,,,,802.3008636369605,None,802.3008636369605,None,802.8009715635171,None,808.7920330636925,808.7920330636925,0.009882127522359951,None,808.7920330636925,808.7920330636925,812.142603566996,None,812.142603566996,None,None,0.008946229481807677,None,,NENA_028,001,2021_Jan_27_1126,test7,3.2.4,99.97117444146842,
180,57,Cykeln som med sina löstagbara delar snabbt och enkelt kunde fällas ihop låg äntligen nerpackad i bagaget.  ,15,,0,,cor,1,no,181,199,,,,,,,,,,,,,0,40,40,40,,,,,,,,,,,,,,,,,,,,,,,,,,,,,,,,,,,,,,,,,,,,,,,,,,,,,,,,,,,,,,,,,,,,,,,,,,,,,,,,,,,,,,,,,,,,,822.1437318725884,None,822.6444270607308,None,822.6444270607308,None,left,1,2.3067263101202116,822.6444270607308,None,,,,,,,,,,,,,824.9649336516277,None,,,,,,,,,,,,,,,,,,,,,,,,,,,,,,,,,812.1526347710815,None,812.1526347710815,None,812.6526076691671,None,821.6542700267901,821.6542700267901,0.00987346773945319,None,821.6542700267901,821.6542700267901,826.465079135984,None,826.465079135984,None,None,0.008149850169502315,None,,NENA_028,001,2021_Jan_27_1126,test7,3.2.4,99.97117444146842,
150,34,Darknet är webbsidor som sökmotorer kan inte hitta.  ,6,,7,,inc,1,no,153,154,,,,,,,,,,,,,0,41,41,41,,,,,,,,,,,,,,,,,,,,,,,,,,,,,,,,,,,,,,,,,,,,,,,,,,,,,,,,,,,,,,,,,,,,,,,,,,,,,,,,,,,,,,,,,,,,,831.9654208446109,None,832.4661519548181,None,832.4661519548181,None,right,1,1.1408308452500933,832.4661519548181,None,,,,,,,,,,,,,833.6162032239417,None,,,,,,,,,,,,,,,,,,,,,,,,,,,,,,,,,826.4750882095132,None,826.4750882095132,None,826.9751217260809,None,831.475970865923,831.475970865923,0.00986641162126034,None,831.475970865923,831.475970865923,835.1165616748152,None,835.1165616748152,None,None,0.008281029846330057,None,,NENA_028,001,2021_Jan_27_1126,test7,3.2.4,99.97117444146842,
130,21,Skomakare lagar ofta skor åt äldre kunder.,3,,4,,cor,1,no,131,132,,,,,,,,,,,,,0,42,42,42,,,,,,,,,,,,,,,,,,,,,,,,,,,,,,,,,,,,,,,,,,,,,,,,,,,,,,,,,,,,,,,,,,,,,,,,,,,,,,,,,,,,,,,,,,,,,840.1168384350685,None,840.6175146999822,None,840.6175146999822,None,left,1,0.5492788164701778,840.6175146999822,None,,,,,,,,,,,,,841.1774655765594,None,,,,,,,,,,,,,,,,,,,,,,,,,,,,,,,,,835.1265986520893,None,835.1265986520893,None,835.6266770712364,None,839.6273890978455,839.6273890978455,0.009876995800368604,None,839.6273890978455,839.6273890978455,842.6778856081131,None,842.6778856081131,None,None,0.00858123565922142,None,,NENA_028,001,2021_Jan_27_1126,test7,3.2.4,99.97117444146842,
160,45,Den lite undanskymda båten inrymde ett flertal rum som den utmattade konstnären från södra Stockholm inte ville hyra.,16,,17,,cor,1,yes,161,162,,,,,,,,,,,,,0,43,43,43,,,,,,,,,,,,,,,,,,,,,,,,,,,,,,,,,,,,,,,,,,,,,,,,,,,,,,,,,,,,,,,,,,,,,,,,,,,,,,,,,,,,,,,,,,,,,853.1791041999631,None,853.6797884831949,None,853.6797884831949,None,left,1,0.5026250368446199,853.6797884831949,None,,,,,,,,,,,,,854.1996509786668,None,,,,,,,,,,,,,,,,,,,,,,,,,,,,,,,,,842.6878985304347,None,842.6878985304347,None,843.1879891374238,None,852.6896378639076,852.6896378639076,0.009878920194751117,None,852.6896378639076,852.6896378639076,855.7003105654812,None,855.7003105654812,None,space,0.008254729766122182,None,92.68001780707891,NENA_028,001,2021_Jan_27_1126,test7,3.2.4,99.97117444146842,
170,18,Kakan är för sött för morföräldrarna.  ,4,,0,,inc,1,no,172,199,,,,,,,,,,,,,0,44,44,44,,,,,,,,,,,,,,,,,,,,,,,,,,,,,,,,,,,,,,,,,,,,,,,,,,,,,,,,,,,,,,,,,,,,,,,,,,,,,,,,,,,,,,,,,,,,,952.886415718981,None,953.3870457983858,None,953.3870457983858,None,right,1,3.6568965069327533,953.3870457983858,None,,,,,,,,,,,,,957.058056789575,None,,,,,,,,,,,,,,,,,,,,,,,,,,,,,,,,,948.3962258099391,None,948.3962258099391,None,948.8962885131832,None,952.3969169889233,952.3969169889233,0.009876354333755444,None,952.3969169889233,952.3969169889233,958.5579482536272,None,958.5579482536272,None,None,0.007874340777561883,None,,NENA_028,001,2021_Jan_27_1126,test7,3.2.4,99.97117444146842,
150,33,Barn berättar saker som lärare inte kan veta om.  ,6,,7,,cor,1,no,151,152,,,,,,,,,,,,,0,45,45,45,,,,,,,,,,,,,,,,,,,,,,,,,,,,,,,,,,,,,,,,,,,,,,,,,,,,,,,,,,,,,,,,,,,,,,,,,,,,,,,,,,,,,,,,,,,,,964.5583735131231,None,965.0591142453113,None,965.0591142453113,None,left,1,1.2404513863821194,965.0591142453113,None,,,,,,,,,,,,,966.309385184265,None,,,,,,,,,,,,,,,,,,,,,,,,,,,,,,,,,958.5679727223242,None,958.5679727223242,None,959.0680463304807,None,964.0689042904733,964.0689042904733,0.009877316533675184,None,964.0689042904733,964.0689042904733,967.8095486296537,None,967.8095486296537,None,None,0.008187375899069593,None,,NENA_028,001,2021_Jan_27_1126,test7,3.2.4,99.97117444146842,
170,50,Älgen är väldigt utbrett i Sverige.  ,4,,0,,inc,1,no,172,199,,,,,,,,,,,,,0,46,46,46,,,,,,,,,,,,,,,,,,,,,,,,,,,,,,,,,,,,,,,,,,,,,,,,,,,,,,,,,,,,,,,,,,,,,,,,,,,,,,,,,,,,,,,,,,,,,972.3097501780876,None,972.8104860992835,None,972.8104860992835,None,right,1,1.4728972843877273,972.8104860992835,None,,,,,,,,,,,,,974.3004364209946,None,,,,,,,,,,,,,,,,,,,,,,,,,,,,,,,,,967.8195368555562,None,967.8195368555562,None,968.31963516013,None,971.820283842032,971.820283842032,0.009836904211624642,None,971.820283842032,971.820283842032,975.8009456162421,None,975.8009456162421,None,None,0.008332988547408604,None,,NENA_028,001,2021_Jan_27_1126,test7,3.2.4,99.97117444146842,
140,72,Inbrottstjuvar stjäl ofta saker när folk är bortrest.,3,,4,,inc,1,no,137,138,,,,,,,,,,,,,0,47,47,47,,,,,,,,,,,,,,,,,,,,,,,,,,,,,,,,,,,,,,,,,,,,,,,,,,,,,,,,,,,,,,,,,,,,,,,,,,,,,,,,,,,,,,,,,,,,,981.3013023993053,None,981.8019783434856,None,981.8019783434856,None,right,1,0.4332136679604446,981.8019783434856,None,,,,,,,,,,,,,982.2517633082416,None,,,,,,,,,,,,,,,,,,,,,,,,,,,,,,,,,975.8109630288209,None,975.8109630288209,None,976.3110510699489,None,980.8118655706594,980.8118655706594,0.009875071402348112,None,980.8118655706594,980.8118655706594,983.7523430646837,None,983.7523430646837,None,None,0.00862036505168362,None,,NENA_028,001,2021_Jan_27_1126,test7,3.2.4,99.97117444146842,
130,27,Apor äter gärna bananer från de omgivande plantagen.,3,,4,,cor,1,no,133,134,,,,,,,,,,,,,0,48,48,48,,,,,,,,,,,,,,,,,,,,,,,,,,,,,,,,,,,,,,,,,,,,,,,,,,,,,,,,,,,,,,,,,,,,,,,,,,,,,,,,,,,,,,,,,,,,,989.2526725854686,None,989.7533770748605,None,989.7533770748605,None,right,0,0.6335891818143864,989.7533770748605,None,,,,,,,,,,,,,990.4032681379949,None,,,,,,,,,,,,,,,,,,,,,,,,,,,,,,,,,983.7623296869233,None,983.7623296869233,None,984.2624116341294,None,988.7631809115292,988.7631809115292,0.009876354333755444,None,988.7631809115292,988.7631809115292,991.9037497502289,None,991.9037497502289,None,None,0.0076276973231870215,None,,NENA_028,001,2021_Jan_27_1126,test7,3.2.4,99.97117444146842,
170,43,Skåpet är väldigt modernt och passar bra i vardagsrummet. ,4,,0,,cor,1,no,173,199,,,,,,,,,,,,,0,49,49,49,,,,,,,,,,,,,,,,,,,,,,,,,,,,,,,,,,,,,,,,,,,,,,,,,,,,,,,,,,,,,,,,,,,,,,,,,,,,,,,,,,,,,,,,,,,,,997.9041865561039,None,998.4048948942882,None,998.4048948942882,None,left,1,0.5579424483639741,998.4048948942882,None,,,,,,,,,,,,,998.9753606719469,None,,,,,,,,,,,,,,,,,,,,,,,,,,,,,,,,,991.9137620310839,None,991.9137620310839,None,992.4138494307472,None,997.4146993724216,997.4146993724216,0.009878599463263527,None,997.4146993724216,997.4146993724216,1000.4752219871247,None,1000.4752219871247,None,None,0.00783232478897844,None,,NENA_028,001,2021_Jan_27_1126,test7,3.2.4,99.97117444146842,
140,34,Matematiker löser gärna problem som intressera allmänheten.,3,,4,,inc,1,no,133,134,,,,,,,,,,,,,0,50,50,50,,,,,,,,,,,,,,,,,,,,,,,,,,,,,,,,,,,,,,,,,,,,,,,,,,,,,,,,,,,,,,,,,,,,,,,,,,,,,,,,,,,,,,,,,,,,,1005.4754968229818,None,1005.9761923318574,None,1005.9761923318574,None,right,1,0.3384528688111459,1005.9761923318574,None,,,,,,,,,,,,,1006.3266210392312,None,,,,,,,,,,,,,,,,,,,,,,,,,,,,,,,,,1000.4852214386729,None,1000.4852214386729,None,1000.985315573721,None,1004.9860195820138,1004.9860195820138,0.009878599461444537,None,1004.9860195820138,1004.9860195820138,1007.8264999947081,None,1007.8264999947081,None,None,0.007866643190936884,None,,NENA_028,001,2021_Jan_27_1126,test7,3.2.4,99.97117444146842,
170,49,Utställningen är väldigt populär och har ett gott rykte. ,4,,0,,cor,1,no,171,199,,,,,,,,,,,,,0,51,51,51,,,,,,,,,,,,,,,,,,,,,,,,,,,,,,,,,,,,,,,,,,,,,,,,,,,,,,,,,,,,,,,,,,,,,,,,,,,,,,,,,,,,,,,,,,,,,1013.8369074182583,None,1014.3376510370408,None,1014.3376510370408,None,left,1,0.5527164296290721,1014.3376510370408,None,,,,,,,,,,,,,1014.9075247421233,None,,,,,,,,,,,,,,,,,,,,,,,,,,,,,,,,,1007.8365061816412,None,1007.8365061816412,None,1008.3365797897977,None,1013.3474853433172,1013.3474853433172,0.009872826274659019,None,1013.3474853433172,1013.3474853433172,1016.4080009019002,None,1016.4080009019002,None,None,0.00810013660156983,None,,NENA_028,001,2021_Jan_27_1126,test7,3.2.4,99.97117444146842,
170,45,Tanden var ganska inflammerad och fick behandlas.  ,4,,0,,cor,1,no,171,199,,,,,,,,,,,,,0,52,52,52,,,,,,,,,,,,,,,,,,,,,,,,,,,,,,,,,,,,,,,,,,,,,,,,,,,,,,,,,,,,,,,,,,,,,,,,,,,,,,,,,,,,,,,,,,,,,1021.4082513620715,None,1021.9089574551263,None,1021.9089574551263,None,left,1,0.5252466354340868,1021.9089574551263,None,,,,,,,,,,,,,1022.4490969930985,None,,,,,,,,,,,,,,,,,,,,,,,,,,,,,,,,,1016.4179939387932,None,1016.4179939387932,None,1016.9180816591879,None,1020.9187709137777,1020.9187709137777,0.009872505543171428,None,1020.9187709137777,1020.9187709137777,1023.9492960398169,None,1023.9492960398169,None,None,0.008155302626619232,None,,NENA_028,001,2021_Jan_27_1126,test7,3.2.4,99.97117444146842,
180,35,Staketet som löper runt hela odlingen för att hålla obehöriga på avstånd är för högt för nyfikna rådjur. ,15,,0,,cor,1,no,181,199,,,,,,,,,,,,,0,53,53,53,,,,,,,,,,,,,,,,,,,,,,,,,,,,,,,,,,,,,,,,,,,,,,,,,,,,,,,,,,,,,,,,,,,,,,,,,,,,,,,,,,,,,,,,,,,,,1034.4504793510687,None,1034.951214951533,None,1034.951214951533,None,left,1,0.6666451775763562,1034.951214951533,None,,,,,,,,,,,,,1035.6315477181315,None,,,,,,,,,,,,,,,,,,,,,,,,,,,,,,,,,1023.9592669461535,None,1023.9592669461535,None,1024.4593671751236,None,1033.9610187882017,1033.9610187882017,0.009875071404167102,None,1033.9610187882017,1033.9610187882017,1037.131600510735,None,1037.131600510735,None,None,0.008020594888876076,None,,NENA_028,001,2021_Jan_27_1126,test7,3.2.4,99.97117444146842,
140,66,Barn äter ofta mat med för mycket sockret.,3,,4,,inc,1,no,137,138,,,,,,,,,,,,,0,54,54,54,,,,,,,,,,,,,,,,,,,,,,,,,,,,,,,,,,,,,,,,,,,,,,,,,,,,,,,,,,,,,,,,,,,,,,,,,,,,,,,,,,,,,,,,,,,,,1042.6319332388457,None,1043.1326428599614,None,1043.1326428599614,None,right,1,1.3490380103539792,1043.1326428599614,None,,,,,,,,,,,,,1044.4928000318168,None,,,,,,,,,,,,,,,,,,,,,,,,,,,,,,,,,1037.1416086220643,None,1037.1416086220643,None,1037.6416636277236,None,1042.1424592052053,1042.1424592052053,0.009874429937553941,None,1042.1424592052053,1042.1424592052053,1045.9931119764483,None,1045.9931119764483,None,None,0.008299632343550911,None,,NENA_028,001,2021_Jan_27_1126,test7,3.2.4,99.97117444146842,
170,92,Seminariet var för anspråksfull för de flesta.  ,4,,0,,inc,1,no,174,199,,,,,,,,,,,,,0,55,55,55,,,,,,,,,,,,,,,,,,,,,,,,,,,,,,,,,,,,,,,,,,,,,,,,,,,,,,,,,,,,,,,,,,,,,,,,,,,,,,,,,,,,,,,,,,,,,1050.9933820013148,None,1051.4940813589828,None,1051.4940813589828,None,right,1,0.6833351454733929,1051.4940813589828,None,,,,,,,,,,,,,1052.1939108254019,None,,,,,,,,,,,,,,,,,,,,,,,,,,,,,,,,,1046.0031210499756,None,1046.0031210499756,None,1046.5032055630445,None,1050.5038893651772,1050.5038893651772,0.009876033602267853,None,1050.5038893651772,1050.5038893651772,1053.6944366987505,None,1053.6944366987505,None,None,0.008342289795109536,None,,NENA_028,001,2021_Jan_27_1126,test7,3.2.4,99.97117444146842,
160,6,Det svenska landslaget spelade en historisk match som de öldrickande gubbarna i restaurangen skulle inte glömma.,14,,15,,inc,1,no,163,164,,,,,,,,,,,,,0,56,56,56,,,,,,,,,,,,,,,,,,,,,,,,,,,,,,,,,,,,,,,,,,,,,,,,,,,,,,,,,,,,,,,,,,,,,,,,,,,,,,,,,,,,,,,,,,,,,1063.1954606058453,None,1063.6961987721706,None,1063.6961987721706,None,right,1,0.44905144905351335,1063.6961987721706,None,,,,,,,,,,,,,1064.1564271146153,None,,,,,,,,,,,,,,,,,,,,,,,,,,,,,,,,,1053.704451224733,None,1053.704451224733,None,1054.204534134139,None,1062.7060176832774,1062.7060176832774,0.009877316531856195,None,1062.7060176832774,1062.7060176832774,1065.6565302622535,None,1065.6565302622535,None,None,0.00810719271976268,None,,NENA_028,001,2021_Jan_27_1126,test7,3.2.4,99.97117444146842,
160,9,Arbetarna på lastfartyget såg en risk med bygget som många av de övriga arbetarna nere vid hamnen inte hade påtalat.,18,,19,,cor,1,no,161,162,,,,,,,,,,,,,0,57,57,57,,,,,,,,,,,,,,,,,,,,,,,,,,,,,,,,,,,,,,,,,,,,,,,,,,,,,,,,,,,,,,,,,,,,,,,,,,,,,,,,,,,,,,,,,,,,,1077.1578851655022,None,1077.6586018427379,None,1077.6586018427379,None,left,1,0.6143092973034072,1077.6586018427379,None,,,,,,,,,,,,,1078.2888852325368,None,,,,,,,,,,,,,,,,,,,,,,,,,,,,,,,,,1065.6665236198796,None,1065.6665236198796,None,1066.1665709279541,None,1076.668436790479,1076.668436790479,0.009876033600448864,None,1076.668436790479,1076.668436790479,1079.7889736264701,None,1079.7889736264701,None,None,0.008104626858767006,None,,NENA_028,001,2021_Jan_27_1126,test7,3.2.4,99.97117444146842,
170,87,Träslaget var för mjukt för att kunna användas. ,4,,0,,cor,1,no,173,199,,,,,,,,,,,,,0,58,58,58,,,,,,,,,,,,,,,,,,,,,,,,,,,,,,,,,,,,,,,,,,,,,,,,,,,,,,,,,,,,,,,,,,,,,,,,,,,,,,,,,,,,,,,,,,,,,1085.289318863156,None,1085.7900368233213,None,1085.7900368233213,None,left,1,0.34656099165476917,1085.7900368233213,None,,,,,,,,,,,,,1086.150135621826,None,,,,,,,,,,,,,,,,,,,,,,,,,,,,,,,,,1079.7990077171498,None,1079.7990077171498,None,1080.299015254369,None,1084.7998868455006,1084.7998868455006,0.00987346774127218,None,1084.7998868455006,1084.7998868455006,1087.6502981050148,None,1087.6502981050148,None,None,0.008183206371541019,None,,NENA_028,001,2021_Jan_27_1126,test7,3.2.4,99.97117444146842,
170,44,Fåret är nästan frisk efter behandlingen.  ,4,,0,,inc,1,no,174,199,,,,,,,,,,,,,0,59,59,59,,,,,,,,,,,,,,,,,,,,,,,,,,,,,,,,,,,,,,,,,,,,,,,,,,,,,,,,,,,,,,,,,,,,,,,,,,,,,,,,,,,,,,,,,,,,,1092.150510558361,None,1092.65120638797,None,1092.65120638797,None,right,1,0.285284045696244,1092.65120638797,None,,,,,,,,,,,,,1092.9513333019013,None,,,,,,,,,,,,,,,,,,,,,,,,,,,,,,,,,1087.6602978772944,None,1087.6602978772944,None,1088.1604247270798,None,1091.6610336381264,1091.6610336381264,0.00987346774127218,None,1091.6610336381264,1091.6610336381264,1094.4514996338844,None,1094.4514996338844,None,None,0.008156264824719983,None,,NENA_028,001,2021_Jan_27_1126,test7,3.2.4,99.97117444146842,
150,105,Säljaren gav en ursäkt som pojken inte kunde godta.  ,6,,7,,cor,1,no,151,152,,,,,,,,,,,,,0,60,60,60,,,,,,,,,,,,,,,,,,,,,,,,,,,,,,,,,,,,,,,,,,,,,,,,,,,,,,,,,,,,,,,,,,,,,,,,,,,,,,,,,,,,,,,,,,,,,1100.4519479861347,None,1100.9526624182408,None,1100.9526624182408,None,left,1,0.6316035256222676,1100.9526624182408,None,,,,,,,,,,,,,1101.6024672042795,None,,,,,,,,,,,,,,,,,,,,,,,,,,,,,,,,,1094.4614881805182,None,1094.4614881805182,None,1094.9615784667758,None,1099.9624903098638,1099.9624903098638,0.009878278729956946,None,1099.9624903098638,1099.9624903098638,1103.1030267545598,None,1103.1030267545598,None,None,0.008453584043309093,None,,NENA_028,001,2021_Jan_27_1126,test7,3.2.4,99.97117444146842,
140,64,Lärare ger ofta betyg utan att diskuterar dem.,3,,4,,inc,1,no,137,138,,,,,,,,,,,,,0,61,61,61,,,,,,,,,,,,,,,,,,,,,,,,,,,,,,,,,,,,,,,,,,,,,,,,,,,,,,,,,,,,,,,,,,,,,,,,,,,,,,,,,,,,,,,,,,,,,1108.6033508228875,None,1109.104006881641,None,1109.104006881641,None,right,1,0.4240051111955836,1109.104006881641,None,,,,,,,,,,,,,1109.5438491324667,None,,,,,,,,,,,,,,,,,,,,,,,,,,,,,,,,,1103.1130290927022,None,1103.1130290927022,None,1103.6131049459864,None,1108.1138832039023,1108.1138832039023,0.009877637265162775,None,1108.1138832039023,1108.1138832039023,1111.0443859107259,None,1111.0443859107259,None,None,0.008699906762558385,None,,NENA_028,001,2021_Jan_27_1126,test7,3.2.4,99.97117444146842,
150,26,Media får information som privatpersoner kan inte få tag på. ,6,,7,,inc,1,no,153,154,,,,,,,,,,,,,0,62,62,62,,,,,,,,,,,,,,,,,,,,,,,,,,,,,,,,,,,,,,,,,,,,,,,,,,,,,,,,,,,,,,,,,,,,,,,,,,,,,,,,,,,,,,,,,,,,,1117.5449136443212,None,1118.045615567852,None,1118.045615567852,None,right,1,0.41022450968739577,1118.045615567852,None,,,,,,,,,,,,,1118.4661048071093,None,,,,,,,,,,,,,,,,,,,,,,,,,,,,,,,,,1111.0543956257197,None,1111.0543956257197,None,1111.5544782143907,None,1117.0553937459053,1117.0553937459053,0.009876354335574433,None,1117.0553937459053,1117.0553937459053,1119.9659061452717,None,1119.9659061452717,None,None,0.007766253853333183,None,,NENA_028,001,2021_Jan_27_1126,test7,3.2.4,99.97117444146842,
170,11,Konstverket är förmodligen falskt och undersöks därför grundligt. ,4,,0,,cor,1,no,173,199,,,,,,,,,,,,,0,63,63,63,,,,,,,,,,,,,,,,,,,,,,,,,,,,,,,,,,,,,,,,,,,,,,,,,,,,,,,,,,,,,,,,,,,,,,,,,,,,,,,,,,,,,,,,,,,,,1125.466283134495,None,1125.9669885860849,None,1125.9669885860849,None,left,1,0.45659604453067004,1125.9669885860849,None,,,,,,,,,,,,,1126.4373754955714,None,,,,,,,,,,,,,,,,,,,,,,,,,,,,,,,,,1119.9759267651762,None,1119.9759267651762,None,1120.47602603195,None,1124.9768052520621,1124.9768052520621,0.009876354333755444,None,1124.9768052520621,1124.9768052520621,1127.937340728146,None,1127.937340728146,None,None,0.007967673993334756,None,,NENA_028,001,2021_Jan_27_1126,test7,3.2.4,99.97117444146842,
150,40,Nätet sprider information och tidningar inte kan kontrollera detta.  ,6,,7,,inc,1,no,157,158,,,,,,,,,,,,,0,64,64,64,,,,,,,,,,,,,,,,,,,,,,,,,,,,,,,,,,,,,,,,,,,,,,,,,,,,,,,,,,,,,,,,,,,,,,,,,,,,,,,,,,,,,,,,,,,,,1133.9377185192034,None,1134.4384598928564,None,1134.4384598928564,None,right,1,0.40096880521559797,1134.4384598928564,None,,,,,,,,,,,,,1134.848658423195,None,,,,,,,,,,,,,,,,,,,,,,,,,,,,,,,,,1127.9473247845244,None,1127.9473247845244,None,1128.4474304659516,None,1133.4482788039613,1133.4482788039613,0.009876033602267853,None,1133.4482788039613,1133.4482788039613,1136.348779852597,None,1136.348779852597,None,None,0.008093721946352161,None,,NENA_028,001,2021_Jan_27_1126,test7,3.2.4,99.97117444146842,
170,99,Nätet var redan färdigt och spindeln väntade på bytet. ,4,,0,,cor,1,no,173,199,,,,,,,,,,,,,0,65,65,65,,,,,,,,,,,,,,,,,,,,,,,,,,,,,,,,,,,,,,,,,,,,,,,,,,,,,,,,,,,,,,,,,,,,,,,,,,,,,,,,,,,,,,,,,,,,,1142.3492047913614,None,1142.849913450279,None,1142.849913450279,None,left,1,0.3973146974803967,1142.849913450279,None,,,,,,,,,,,,,1143.25988714699,None,,,,,,,,,,,,,,,,,,,,,,,,,,,,,,,,,1136.3587651919051,None,1136.3587651919051,None,1136.8588211597626,None,1141.8597724529727,1141.8597724529727,0.009875392137473682,None,1141.8597724529727,1141.8597724529727,1144.7602154489891,None,1144.7602154489891,None,None,0.008297707949168398,None,,NENA_028,001,2021_Jan_27_1126,test7,3.2.4,99.97117444146842,
140,14,Skräddare syr ofta kläder åt rika människa.,3,,4,,inc,1,no,131,132,,,,,,,,,,,,,0,66,66,66,,,,,,,,,,,,,,,,,,,,,,,,,,,,,,,,,,,,,,,,,,,,,,,,,,,,,,,,,,,,,,,,,,,,,,,,,,,,,,,,,,,,,,,,,,,,,1149.7604934921737,None,1150.2612076035466,None,1150.2612076035466,None,right,1,0.2978298262805765,1150.2612076035466,None,,,,,,,,,,,,,1150.5711361090189,None,,,,,,,,,,,,,,,,,,,,,,,,,,,,,,,,,1144.770224201785,None,1144.770224201785,None,1145.270305186793,None,1149.2710332500383,1149.2710332500383,0.009879240929876687,None,1149.2710332500383,1149.2710332500383,1152.071502898942,None,1152.071502898942,None,None,0.008355119103725883,None,,NENA_028,001,2021_Jan_27_1126,test7,3.2.4,99.97117444146842,
170,24,Vinet är ganska dyr att importera.  ,4,,0,,inc,1,no,174,199,,,,,,,,,,,,,0,67,67,67,,,,,,,,,,,,,,,,,,,,,,,,,,,,,,,,,,,,,,,,,,,,,,,,,,,,,,,,,,,,,,,,,,,,,,,,,,,,,,,,,,,,,,,,,,,,,1156.5716649972537,None,1157.072382957419,None,1157.072382957419,None,right,1,0.3584608165674581,1157.072382957419,None,,,,,,,,,,,,,1157.4423397964174,None,,,,,,,,,,,,,,,,,,,,,,,,,,,,,,,,,1152.0815215944522,None,1152.0815215944522,None,1152.5815833354982,None,1156.0822320173984,1156.0822320173984,0.009876354335574433,None,1156.0822320173984,1156.0822320173984,1158.9426828521214,None,1158.9426828521214,None,None,0.008331384882694692,None,,NENA_028,001,2021_Jan_27_1126,test7,3.2.4,99.97117444146842,
170,36,Köket är för sval och behöver värmas upp. ,4,,0,,inc,1,no,174,199,,,,,,,,,,,,,0,68,68,68,,,,,,,,,,,,,,,,,,,,,,,,,,,,,,,,,,,,,,,,,,,,,,,,,,,,,,,,,,,,,,,,,,,,,,,,,,,,,,,,,,,,,,,,,,,,,1164.4430373900568,None,1164.9437261635458,None,1164.9437261635458,None,right,1,0.3428639057347027,1164.9437261635458,None,,,,,,,,,,,,,1165.3034795329231,None,,,,,,,,,,,,,,,,,,,,,,,,,,,,,,,,,1158.9526771719457,None,1158.9526771719457,None,1159.452784777769,None,1163.9535816381804,1163.9535816381804,0.009877637265162775,None,1163.9535816381804,1163.9535816381804,1166.8040352344128,None,1166.8040352344128,None,None,0.008518692782672588,None,,NENA_028,001,2021_Jan_27_1126,test7,3.2.4,99.97117444146842,
150,109,Konstapeln använde förhörsrummet som kollegan inte ville använda.  ,6,,7,,cor,1,no,151,152,,,,,,,,,,,,,0,69,69,69,,,,,,,,,,,,,,,,,,,,,,,,,,,,,,,,,,,,,,,,,,,,,,,,,,,,,,,,,,,,,,,,,,,,,,,,,,,,,,,,,,,,,,,,,,,,,1172.3043795089006,None,1172.805092337342,None,1172.805092337342,None,left,1,0.385528732678722,1172.805092337342,None,,,,,,,,,,,,,1173.2049578220458,None,,,,,,,,,,,,,,,,,,,,,,,,,,,,,,,,,1166.8140545713877,None,1166.8140545713877,None,1167.3141390844548,None,1171.8148830239707,1171.8148830239707,0.00987346773945319,None,1171.8148830239707,1171.8148830239707,1174.705413134196,None,1174.705413134196,None,None,0.007563550780105288,None,,NENA_028,001,2021_Jan_27_1126,test7,3.2.4,99.97117444146842,
130,51,Snickare tillverkar ofta möbler från gammalt trä.,3,,4,,cor,1,no,135,136,,,,,,,,,,,,,0,70,70,70,,,,,,,,,,,,,,,,,,,,,,,,,,,,,,,,,,,,,,,,,,,,,,,,,,,,,,,,,,,,,,,,,,,,,,,,,,,,,,,,,,,,,,,,,,,,,1179.7056655187635,None,1180.2063780264734,None,1180.2063780264734,None,left,1,0.42383640579100756,1180.2063780264734,None,,,,,,,,,,,,,1180.6462321444096,None,,,,,,,,,,,,,,,,,,,,,,,,,,,,,,,,,1174.7154241321214,None,1174.7154241321214,None,1175.215527568419,None,1179.2161658265077,1179.2161658265077,0.00987378847275977,None,1179.2161658265077,1179.2161658265077,1182.1466948334132,None,1182.1466948334132,None,None,0.007591454526846064,None,,NENA_028,001,2021_Jan_27_1126,test7,3.2.4,99.97117444146842,
180,44,Bröllopet som för att vara en vuxenfest avslutades alldeles för tidigt var ändå jättelyckad enligt de flesta gästerna. ,14,,0,,inc,1,no,182,199,,,,,,,,,,,,,0,71,71,71,,,,,,,,,,,,,,,,,,,,,,,,,,,,,,,,,,,,,,,,,,,,,,,,,,,,,,,,,,,,,,,,,,,,,,,,,,,,,,,,,,,,,,,,,,,,,1192.647923688709,None,1193.1486233671103,None,1193.1486233671103,None,right,1,0.8892574107703695,1193.1486233671103,None,,,,,,,,,,,,,1194.0484771450674,None,,,,,,,,,,,,,,,,,,,,,,,,,,,,,,,,,1182.1567119252586,None,1182.1567119252586,None,1182.6567970797923,None,1192.158437787958,1192.158437787958,0.009875712868961273,None,1192.158437787958,1192.158437787958,1195.5490366953495,None,1195.5490366953495,None,None,0.008702793356860639,None,,NENA_028,001,2021_Jan_27_1126,test7,3.2.4,99.97117444146842,
150,115,Målvakten gjorde misstag och domaren kunde inte ignorera dem.  ,6,,7,,cor,1,no,155,156,,,,,,,,,,,,,0,72,72,72,,,,,,,,,,,,,,,,,,,,,,,,,,,,,,,,,,,,,,,,,,,,,,,,,,,,,,,,,,,,,,,,,,,,,,,,,,,,,,,,,,,,,,,,,,,,,1201.5494779914816,None,1202.050165482041,None,1202.050165482041,None,left,1,1.9475236388025223,1202.050165482041,None,,,,,,,,,,,,,1204.010813182499,None,,,,,,,,,,,,,,,,,,,,,,,,,,,,,,,,,1195.559016261469,None,1195.559016261469,None,1196.0591046233303,None,1201.059974771165,1201.059974771165,0.009877957998469356,None,1201.059974771165,1201.059974771165,1205.5107440966735,None,1205.5107440966735,None,None,0.00793977024477499,None,,NENA_028,001,2021_Jan_27_1126,test7,3.2.4,99.97117444146842,
150,49,Regeringen presenterar förslag som riksdagen inte vill diskutera.  ,6,,7,,cor,1,no,151,152,,,,,,,,,,,,,0,73,73,73,,,,,,,,,,,,,,,,,,,,,,,,,,,,,,,,,,,,,,,,,,,,,,,,,,,,,,,,,,,,,,,,,,,,,,,,,,,,,,,,,,,,,,,,,,,,,1211.0110704101307,None,1211.5118037654656,None,1211.5118037654656,None,left,1,0.37360613574492163,1211.5118037654656,None,,,,,,,,,,,,,1211.901585413846,None,,,,,,,,,,,,,,,,,,,,,,,,,,,,,,,,,1205.5207698483036,None,1205.5207698483036,None,1206.0208351174088,None,1210.5215761703303,1210.5215761703303,0.009876995798549615,None,1210.5215761703303,1210.5215761703303,1213.4021055140042,None,1213.4021055140042,None,None,0.00805523402232211,None,,NENA_028,001,2021_Jan_27_1126,test7,3.2.4,99.97117444146842,
160,25,Filosofen med de tjocka glasögonen drog en fullständigt absurd slutsats som de två psykologerna bland deltagarna i seminariet inte kunde förstå.,19,,20,,cor,1,no,161,162,,,,,,,,,,,,,0,74,74,74,,,,,,,,,,,,,,,,,,,,,,,,,,,,,,,,,,,,,,,,,,,,,,,,,,,,,,,,,,,,,,,,,,,,,,,,,,,,,,,,,,,,,,,,,,,,,1225.4035667401467,None,1225.9043129247902,None,1225.9043129247902,None,left,1,0.3888329210312804,1225.9043129247902,None,,,,,,,,,,,,,1226.3045867022292,None,,,,,,,,,,,,,,,,,,,,,,,,,,,,,,,,,1213.412138001021,None,1213.412138001021,None,1213.912206798187,None,1224.9141315151637,1224.9141315151637,0.009872184808045859,None,1224.9141315151637,1224.9141315151637,1227.804631797248,None,1227.804631797248,None,None,0.008102702462565503,None,,NENA_028,001,2021_Jan_27_1126,test7,3.2.4,99.97117444146842,
170,48,Arbetet var ganska välbetald och det fanns många sökande. ,4,,0,,inc,1,no,174,199,,,,,,,,,,,,,0,75,75,75,,,,,,,,,,,,,,,,,,,,,,,,,,,,,,,,,,,,,,,,,,,,,,,,,,,,,,,,,,,,,,,,,,,,,,,,,,,,,,,,,,,,,,,,,,,,,1233.8050541701514,None,1234.3057220960136,None,1234.3057220960136,None,right,1,0.38719814642172423,1234.3057220960136,None,,,,,,,,,,,,,1234.7057890008573,None,,,,,,,,,,,,,,,,,,,,,,,,,,,,,,,,,1227.8146164950913,None,1227.8146164950913,None,1228.314681443463,None,1233.3155673072024,1233.3155673072024,0.009875392135654693,None,1233.3155673072024,1233.3155673072024,1236.2060566843743,None,1236.2060566843743,None,None,0.008280709114842466,None,,NENA_028,001,2021_Jan_27_1126,test7,3.2.4,99.97117444146842,
160,59,Många europeiska klädaffärer bedriver en omoralisk utlandshandel som konsumenterna i de relativt välbärgade länderna inte vill förändra.,15,,16,,cor,1,no,161,162,,,,,,,,,,,,,0,76,76,76,,,,,,,,,,,,,,,,,,,,,,,,,,,,,,,,,,,,,,,,,,,,,,,,,,,,,,,,,,,,,,,,,,,,,,,,,,,,,,,,,,,,,,,,,,,,,1246.2071686325971,None,1246.7078962147452,None,1246.7078962147452,None,left,1,0.5846578792315995,1246.7078962147452,None,,,,,,,,,,,,,1247.3081773048898,None,,,,,,,,,,,,,,,,,,,,,,,,,,,,,,,,,1236.2160343260975,None,1236.2160343260975,None,1236.7161355172657,None,1245.7177087111968,1245.7177087111968,0.009878920194751117,None,1245.7177087111968,1245.7177087111968,1248.8082506243868,None,1248.8082506243868,None,None,0.008070629191934131,None,,NENA_028,001,2021_Jan_27_1126,test7,3.2.4,99.97117444146842,
160,13,Den egyptiska bomullen uppvisade en otroligt hög kvalitet som de nyfikna besökarna på plantagen i norr inte kunde sluta beundra.,17,,18,,cor,1,no,161,162,,,,,,,,,,,,,0,77,77,77,,,,,,,,,,,,,,,,,,,,,,,,,,,,,,,,,,,,,,,,,,,,,,,,,,,,,,,,,,,,,,,,,,,,,,,,,,,,,,,,,,,,,,,,,,,,,1260.3096157910832,None,1260.8103449768923,None,1260.8103449768923,None,left,1,0.537905955397946,1260.8103449768923,None,,,,,,,,,,,,,1261.360615819628,None,,,,,,,,,,,,,,,,,,,,,,,,,,,,,,,,,1248.818249113735,None,1248.818249113735,None,1249.3183073267219,None,1259.8201712648506,1259.8201712648506,0.009877957996650366,None,1259.8201712648506,1259.8201712648506,1262.8606984403727,None,1262.8606984403727,None,None,0.008087307291134493,None,,NENA_028,001,2021_Jan_27_1126,test7,3.2.4,99.97117444146842,
150,30,Föräldrarna drar skämt som barnen kan inte förstå.  ,6,,7,,inc,1,no,153,154,,,,,,,,,,,,,0,78,78,78,,,,,,,,,,,,,,,,,,,,,,,,,,,,,,,,,,,,,,,,,,,,,,,,,,,,,,,,,,,,,,,,,,,,,,,,,,,,,,,,,,,,,,,,,,,,,1268.3610276404243,None,1268.8617497701152,None,1268.8617497701152,None,right,1,0.47024450416574837,1268.8617497701152,None,,,,,,,,,,,,,1269.3418568050338,None,,,,,,,,,,,,,,,,,,,,,,,,,,,,,,,,,1262.8707065517037,None,1262.8707065517037,None,1263.370756104906,None,1267.871574775142,1267.871574775142,0.00987378847094078,None,1267.871574775142,1267.871574775142,1270.842000364994,None,1270.842000364994,None,None,0.008143756251229206,None,,NENA_028,001,2021_Jan_27_1126,test7,3.2.4,99.97117444146842,
180,37,Tavlan som för en liten stund sedan auktionerades ut till en beslutsam konstkännare var otroligt vacker men kostade en förmögenhet. ,16,,0,,cor,1,no,181,199,,,,,,,,,,,,,0,79,79,79,,,,,,,,,,,,,,,,,,,,,,,,,,,,,,,,,,,,,,,,,,,,,,,,,,,,,,,,,,,,,,,,,,,,,,,,,,,,,,,,,,,,,,,,,,,,,1282.3434595063727,None,1282.8441883714504,None,1282.8441883714504,None,left,1,1.4556380159356195,1282.8441883714504,None,,,,,,,,,,,,,1284.3143745022635,None,,,,,,,,,,,,,,,,,,,,,,,,,,,,,,,,,1270.8520508130414,None,1270.8520508130414,None,1271.3521564944685,None,1281.8539774544142,1281.8539774544142,0.009868656750768423,None,1281.8539774544142,1281.8539774544142,1285.8146431479786,None,1285.8146431479786,None,None,0.00831374458357459,None,,NENA_028,001,2021_Jan_27_1126,test7,3.2.4,99.97117444146842,
170,15,Modemet är för gammalt för att repareras.  ,4,,0,,cor,1,no,173,199,,,,,,,,,,,,,0,80,80,80,,,,,,,,,,,,,,,,,,,,,,,,,,,,,,,,,,,,,,,,,,,,,,,,,,,,,,,,,,,,,,,,,,,,,,,,,,,,,,,,,,,,,,,,,,,,,1290.8149311338775,None,1291.3156442830523,None,1291.3156442830523,None,left,1,1.0878201433606591,1291.3156442830523,None,,,,,,,,,,,,,1292.415542257978,None,,,,,,,,,,,,,,,,,,,,,,,,,,,,,,,,,1285.8246717862012,None,1285.8246717862012,None,1286.3247184528109,None,1290.325441063601,1290.325441063601,0.009875712868961273,None,1290.325441063601,1290.325441063601,1293.9160479251645,None,1293.9160479251645,None,None,0.008616195527793025,None,,NENA_028,001,2021_Jan_27_1126,test7,3.2.4,99.97117444146842,
170,117,Lampan är tillräckligt stark för att man ska kunna se.,4,,0,,cor,1,no,171,199,,,,,,,,,,,,,0,81,81,81,,,,,,,,,,,,,,,,,,,,,,,,,,,,,,,,,,,,,,,,,,,,,,,,,,,,,,,,,,,,,,,,,,,,,,,,,,,,,,,,,,,,,,,,,,,,,1300.4165936197924,None,1300.9172900908661,None,1300.9172900908661,None,left,1,0.3579611150071287,1300.9172900908661,None,,,,,,,,,,,,,1301.2870987513552,None,,,,,,,,,,,,,,,,,,,,,,,,,,,,,,,,,1293.9261041464006,None,1293.9261041464006,None,1294.4261812826162,None,1299.9271061153786,1299.9271061153786,0.009872184809864848,None,1299.9271061153786,1299.9271061153786,1302.7876175685838,None,1302.7876175685838,None,None,0.007728728125584894,None,,NENA_028,001,2021_Jan_27_1126,test7,3.2.4,99.97117444146842,
150,57,Utvärderingen gav resultat som forskarna inte kunde värdera.  ,6,,7,,cor,1,no,151,152,,,,,,,,,,,,,0,82,82,82,,,,,,,,,,,,,,,,,,,,,,,,,,,,,,,,,,,,,,,,,,,,,,,,,,,,,,,,,,,,,,,,,,,,,,,,,,,,,,,,,,,,,,,,,,,,,1308.2879554284164,None,1308.7886612007396,None,1308.7886612007396,None,left,1,0.4383809926093818,1308.7886612007396,None,,,,,,,,,,,,,1309.238457070408,None,,,,,,,,,,,,,,,,,,,,,,,,,,,,,,,,,1302.7976263213777,None,1302.7976263213777,None,1303.2976903075532,None,1307.798480432578,1307.798480432578,0.00987410920606635,None,1307.798480432578,1307.798480432578,1310.7389675485852,None,1310.7389675485852,None,None,0.007837135779482196,None,,NENA_028,001,2021_Jan_27_1126,test7,3.2.4,99.97117444146842,
160,4,Det nya lagförslaget innebär stora praktiska förändringar som de mer erfarna medlemmarna i partiet kan inte ställa sig bakom.,15,,16,,inc,1,no,163,164,,,,,,,,,,,,,0,83,83,83,,,,,,,,,,,,,,,,,,,,,,,,,,,,,,,,,,,,,,,,,,,,,,,,,,,,,,,,,,,,,,,,,,,,,,,,,,,,,,,,,,,,,,,,,,,,,1321.7403434598264,None,1322.241030308921,None,1322.241030308921,None,right,1,0.3697839640699385,1322.241030308921,None,,,,,,,,,,,,,1322.6215219344294,None,,,,,,,,,,,,,,,,,,,,,,,,,,,,,,,,,1310.7490115819792,None,1310.7490115819792,None,1311.249087114532,None,1321.2508161845572,1321.2508161845572,0.009876033600448864,None,1321.2508161845572,1321.2508161845572,1324.1213184615995,None,1324.1213184615995,None,None,0.007791591737259296,None,,NENA_028,001,2021_Jan_27_1126,test7,3.2.4,99.97117444146842,
170,61,Elden var ganska farlig för de närliggande husen. ,4,,0,,cor,1,no,171,199,,,,,,,,,,,,,0,84,84,84,,,,,,,,,,,,,,,,,,,,,,,,,,,,,,,,,,,,,,,,,,,,,,,,,,,,,,,,,,,,,,,,,,,,,,,,,,,,,,,,,,,,,,,,,,,,,1329.6216438128567,None,1330.1223543961705,None,1330.1223543961705,None,left,1,0.4081625191101921,1330.1223543961705,None,,,,,,,,,,,,,1330.5427778852236,None,,,,,,,,,,,,,,,,,,,,,,,,,,,,,,,,,1324.131319837542,None,1324.131319837542,None,1324.6313969737594,None,1329.132139630342,1329.132139630342,0.009876995798549615,None,1329.132139630342,1329.132139630342,1332.0426510675102,None,1332.0426510675102,None,None,0.00787113344813406,None,,NENA_028,001,2021_Jan_27_1126,test7,3.2.4,99.97117444146842,
180,43,Myntet som på den här tiden faktiskt räckte till ett par nya skor såg fantastiskt blankt ut i solskenet. ,16,,0,,cor,1,no,181,199,,,,,,,,,,,,,0,85,85,85,,,,,,,,,,,,,,,,,,,,,,,,,,,,,,,,,,,,,,,,,,,,,,,,,,,,,,,,,,,,,,,,,,,,,,,,,,,,,,,,,,,,,,,,,,,,,1343.043984642035,None,1343.544681433842,None,1343.544681433842,None,left,1,0.449613372757085,1343.544681433842,None,,,,,,,,,,,,,1344.0052212077453,None,,,,,,,,,,,,,,,,,,,,,,,,,,,,,,,,,1332.0526934972413,None,1332.0526934972413,None,1332.5527709541902,None,1342.5545138157222,1342.5545138157222,0.009877957998469356,None,1342.5545138157222,1342.5545138157222,1345.504995604359,None,1345.504995604359,None,None,0.007801213718266808,None,,NENA_028,001,2021_Jan_27_1126,test7,3.2.4,99.97117444146842,
180,24,Kaffet som hade hällts upp i de små fina kaffekopparna på middagsbordet var för varm att drickas utan mjölk. ,15,,0,,inc,1,no,182,199,,,,,,,,,,,,,0,86,86,86,,,,,,,,,,,,,,,,,,,,,,,,,,,,,,,,,,,,,,,,,,,,,,,,,,,,,,,,,,,,,,,,,,,,,,,,,,,,,,,,,,,,,,,,,,,,,1356.5062948604836,None,1357.0070112169842,None,1357.0070112169842,None,right,1,0.666843390388749,1357.0070112169842,None,,,,,,,,,,,,,1357.6868657711175,None,,,,,,,,,,,,,,,,,,,,,,,,,,,,,,,,,1345.5150357889588,None,1345.5150357889588,None,1346.0151267166812,None,1356.0168179402472,1356.0168179402472,0.009876995798549615,None,1356.0168179402472,1356.0168179402472,1359.187382663948,None,1359.187382663948,None,None,0.007754707474305178,None,,NENA_028,001,2021_Jan_27_1126,test7,3.2.4,99.97117444146842,
160,52,Tre promenader i veckan har positiva effekter på hjärnan som många människor med lätt eller medelsvår depression bör inte vara utan.,18,,19,,inc,1,yes,163,164,,,,,,,,,,,,,0,87,87,87,,,,,,,,,,,,,,,,,,,,,,,,,,,,,,,,,,,,,,,,,,,,,,,,,,,,,,,,,,,,,,,,,,,,,,,,,,,,,,,,,,,,,,,,,,,,,1371.1888544742696,None,1371.6895474172843,None,1371.6895474172843,None,right,1,0.4718965983411181,1371.6895474172843,None,,,,,,,,,,,,,1372.1793206945395,None,,,,,,,,,,,,,,,,,,,,,,,,,,,,,,,,,1359.1973712105837,None,1359.1973712105837,None,1359.6974720810204,None,1370.6993663283893,1370.6993663283893,0.009871222611764097,None,1370.6993663283893,1370.6993663283893,1373.6797002816993,None,1373.6797002816993,None,space,0.0078089113030728186,None,15.288737695489544,NENA_028,001,2021_Jan_27_1126,test7,3.2.4,99.97117444146842,
170,51,Mörkret är särskilt långvarigt i Finland.  ,4,,0,,cor,1,no,173,199,,,,,,,,,,,,,0,88,88,88,,,,,,,,,,,,,,,,,,,,,,,,,,,,,,,,,,,,,,,,,,,,,,,,,,,,,,,,,,,,,,,,,,,,,,,,,,,,,,,,,,,,,,,,,,,,,1393.4726868837324,None,1393.973418314671,None,1393.973418314671,None,left,1,1.0274637002748932,1393.973418314671,None,,,,,,,,,,,,,1395.0137879783606,None,,,,,,,,,,,,,,,,,,,,,,,,,,,,,,,,,1388.9825441223975,None,1388.9825441223975,None,1389.482620296415,None,1392.9832260001322,1392.9832260001322,0.009878599463263527,None,1392.9832260001322,1392.9832260001322,1396.5138731649681,None,1396.5138731649681,None,None,0.008066459664405556,None,,NENA_028,001,2021_Jan_27_1126,test7,3.2.4,99.97117444146842,
170,6,Mangon var mycket saftigt men smakade inget.  ,4,,0,,inc,1,no,172,199,,,,,,,,,,,,,0,89,89,89,,,,,,,,,,,,,,,,,,,,,,,,,,,,,,,,,,,,,,,,,,,,,,,,,,,,,,,,,,,,,,,,,,,,,,,,,,,,,,,,,,,,,,,,,,,,,1401.5140671761828,None,1402.014807908371,None,1402.014807908371,None,right,1,0.7461294778695446,1402.014807908371,None,,,,,,,,,,,,,1402.7749312749993,None,,,,,,,,,,,,,,,,,,,,,,,,,,,,,,,,,1396.5238456749676,None,1396.5238456749676,None,1397.0239667515643,None,1401.0246396487846,1401.0246396487846,0.009876354335574433,None,1401.0246396487846,1401.0246396487846,1404.2751755450286,None,1404.2751755450286,None,None,0.008114569571262109,None,,NENA_028,001,2021_Jan_27_1126,test7,3.2.4,99.97117444146842,
180,49,Ålen som tidigt rödlistades på grund av det nära förestående utrotningshotet är fortfarande vanlig som julmat.  ,14,,0,,cor,1,no,181,199,,,,,,,,,,,,,0,90,90,90,,,,,,,,,,,,,,,,,,,,,,,,,,,,,,,,,,,,,,,,,,,,,,,,,,,,,,,,,,,,,,,,,,,,,,,,,,,,,,,,,,,,,,,,,,,,,1413.7762231863444,None,1414.2769241476772,None,1414.2769241476772,None,right,0,3.371410720361382,1414.2769241476772,None,,,,,,,,,,,,,1417.6672651538984,None,,,,,,,,,,,,,,,,,,,,,,,,,,,,,,,,,1404.2851987307959,None,1404.2851987307959,None,1404.7852463596037,None,1413.2867610198145,1413.2867610198145,0.00987378847275977,None,1413.2867610198145,1413.2867610198145,1419.1677368234182,None,1419.1677368234182,None,None,0.008231957743191742,None,,NENA_028,001,2021_Jan_27_1126,test7,3.2.4,99.97117444146842,
140,50,Hundar jagar ofta katter genom trädgård.,3,,4,,inc,1,no,135,136,,,,,,,,,,,,,0,91,91,91,,,,,,,,,,,,,,,,,,,,,,,,,,,,,,,,,,,,,,,,,,,,,,,,,,,,,,,,,,,,,,,,,,,,,,,,,,,,,,,,,,,,,,,,,,,,,1423.66794639017,None,1424.1686358051238,None,1424.1686358051238,None,right,1,1.1034324493630265,1424.1686358051238,None,,,,,,,,,,,,,1425.2885975352974,None,,,,,,,,,,,,,,,,,,,,,,,,,,,,,,,,,1419.177753594532,None,1419.177753594532,None,1419.6778583137611,None,1423.1784704321335,1423.1784704321335,0.009875071404167102,None,1423.1784704321335,1423.1784704321335,1426.7890788267982,None,1426.7890788267982,None,None,0.00831502751680091,None,,NENA_028,001,2021_Jan_27_1126,test7,3.2.4,99.97117444146842,
170,38,Stugan var lagom rymligt för familjen.  ,4,,0,,inc,1,no,172,199,,,,,,,,,,,,,0,92,92,92,,,,,,,,,,,,,,,,,,,,,,,,,,,,,,,,,,,,,,,,,,,,,,,,,,,,,,,,,,,,,,,,,,,,,,,,,,,,,,,,,,,,,,,,,,,,,1431.289262093468,None,1431.789963054799,None,1431.789963054799,None,right,1,0.48998464011128817,1431.789963054799,None,,,,,,,,,,,,,1432.2899500651247,None,,,,,,,,,,,,,,,,,,,,,,,,,,,,,,,,,1426.799079561276,None,1426.799079561276,None,1427.2991599048191,None,1430.7997976818087,1430.7997976818087,0.0098731470079656,None,1430.7997976818087,1430.7997976818087,1433.790277725659,None,1433.790277725659,None,None,0.008301236008264823,None,,NENA_028,001,2021_Jan_27_1126,test7,3.2.4,99.97117444146842,
150,48,Bolagen accepterar risker men bankerna inte är beredda att ta dem. ,6,,7,,inc,1,no,157,158,,,,,,,,,,,,,0,93,93,93,,,,,,,,,,,,,,,,,,,,,,,,,,,,,,,,,,,,,,,,,,,,,,,,,,,,,,,,,,,,,,,,,,,,,,,,,,,,,,,,,,,,,,,,,,,,,1440.7908954247805,None,1441.2915989519743,None,1441.2915989519743,None,right,1,0.6120664134796243,1441.2915989519743,None,,,,,,,,,,,,,1441.9214009219786,None,,,,,,,,,,,,,,,,,,,,,,,,,,,,,,,,,1433.8003124578036,None,1433.8003124578036,None,1434.3004091587145,None,1440.3014338997154,1440.3014338997154,0.009877316533675184,None,1440.3014338997154,1440.3014338997154,1443.4219880552723,None,1443.4219880552723,None,None,0.007718785411270801,None,,NENA_028,001,2021_Jan_27_1126,test7,3.2.4,99.97117444146842,
180,14,Flygeln som bandledaren hade bett pianisten att inte använda på konserten var extremt svårstämt och lät väldigt högt. ,14,,0,,inc,1,no,182,199,,,,,,,,,,,,,0,94,94,94,,,,,,,,,,,,,,,,,,,,,,,,,,,,,,,,,,,,,,,,,,,,,,,,,,,,,,,,,,,,,,,,,,,,,,,,,,,,,,,,,,,,,,,,,,,,,1453.9231726494536,None,1454.4238867608265,None,1454.4238867608265,None,left,0,0.45565276963861834,1454.4238867608265,None,,,,,,,,,,,,,1454.8936729379539,None,,,,,,,,,,,,,,,,,,,,,,,,,,,,,,,,,1443.431985261691,None,1443.431985261691,None,1443.9320534173903,None,1453.4337255573619,1453.4337255573619,0.009876995798549615,None,1453.4337255573619,1453.4337255573619,1456.3942215833235,None,1456.3942215833235,None,None,0.008760525246543693,None,,NENA_028,001,2021_Jan_27_1126,test7,3.2.4,99.97117444146842,
150,75,Artisten övade sången men gitarristen ville inte spela den.  ,6,,7,,cor,1,no,155,156,,,,,,,,,,,,,0,95,95,95,,,,,,,,,,,,,,,,,,,,,,,,,,,,,,,,,,,,,,,,,,,,,,,,,,,,,,,,,,,,,,,,,,,,,,,,,,,,,,,,,,,,,,,,,,,,,1462.3946558233356,None,1462.895359029796,None,1462.895359029796,None,left,1,0.4478329854991898,1462.895359029796,None,,,,,,,,,,,,,1463.3551736270483,None,,,,,,,,,,,,,,,,,,,,,,,,,,,,,,,,,1456.4042187897403,None,1456.4042187897403,None,1456.904308434533,None,1461.9051891665467,1461.9051891665467,0.009878278729956946,None,1461.9051891665467,1461.9051891665467,1464.8556934064732,None,1464.8556934064732,None,None,0.007753103811410256,None,,NENA_028,001,2021_Jan_27_1126,test7,3.2.4,99.97117444146842,
170,34,Festen var ganska trevligt men slutade för tidigt. ,4,,0,,inc,1,no,172,199,,,,,,,,,,,,,0,96,96,96,,,,,,,,,,,,,,,,,,,,,,,,,,,,,,,,,,,,,,,,,,,,,,,,,,,,,,,,,,,,,,,,,,,,,,,,,,,,,,,,,,,,,,,,,,,,,1470.35602805898,None,1470.856737038629,None,1470.856737038629,None,right,1,0.7502698163898458,1470.856737038629,None,,,,,,,,,,,,,1471.6170756169058,None,,,,,,,,,,,,,,,,,,,,,,,,,,,,,,,,,1464.8657040836652,None,1464.8657040836652,None,1465.3657853894065,None,1469.866546648488,1469.866546648488,0.009875392137473682,None,1469.866546648488,1469.866546648488,1473.1171482949362,None,1473.1171482949362,None,None,0.007950033694214653,None,,NENA_028,001,2021_Jan_27_1126,test7,3.2.4,99.97117444146842,
160,54,Löpare runtom i landet påtalar ett allvarligt problem som de flesta deltagare i landets många lopp har inte brytt sig om.,17,,18,,inc,1,no,163,164,,,,,,,,,,,,,0,97,97,97,,,,,,,,,,,,,,,,,,,,,,,,,,,,,,,,,,,,,,,,,,,,,,,,,,,,,,,,,,,,,,,,,,,,,,,,,,,,,,,,,,,,,,,,,,,,,1485.1185575623795,None,1485.6193005396972,None,1485.6193005396972,None,right,1,3.9392432824934076,1485.6193005396972,None,,,,,,,,,,,,,1489.5697280924333,None,,,,,,,,,,,,,,,,,,,,,,,,,,,,,,,,,1473.1271313891166,None,1473.1271313891166,None,1473.627196016757,None,1484.6291293935165,1484.6291293935165,0.009878920196570107,None,1484.6291293935165,1484.6291293935165,1491.0702081010027,None,1491.0702081010027,None,None,0.008556539243727457,None,,NENA_028,001,2021_Jan_27_1126,test7,3.2.4,99.97117444146842,
150,78,Pojken serverade mat som katten ville inte äta.  ,6,,7,,inc,1,no,153,154,,,,,,,,,,,,,0,98,98,98,,,,,,,,,,,,,,,,,,,,,,,,,,,,,,,,,,,,,,,,,,,,,,,,,,,,,,,,,,,,,,,,,,,,,,,,,,,,,,,,,,,,,,,,,,,,,1496.5705587901457,None,1497.0712822027663,None,1497.0712822027663,None,right,1,0.8309822022201843,1497.0712822027663,None,,,,,,,,,,,,,1497.9211068100858,None,,,,,,,,,,,,,,,,,,,,,,,,,,,,,,,,,1491.0802450782767,None,1491.0802450782767,None,1491.5803215730275,None,1496.081066795473,1496.081066795473,0.009872184809864848,None,1496.081066795473,1496.081066795473,1499.421679510408,None,1499.421679510408,None,None,0.007631546115590027,None,,NENA_028,001,2021_Jan_27_1126,test7,3.2.4,99.97117444146842,
180,4,Rummet som hade lånats ut till ett yngre par på genomresa var fruktansvärt stökig när de åkte. ,14,,0,,inc,1,no,182,199,,,,,,,,,,,,,0,99,99,99,,,,,,,,,,,,,,,,,,,,,,,,,,,,,,,,,,,,,,,,,,,,,,,,,,,,,,,,,,,,,,,,,,,,,,,,,,,,,,,,,,,,,,,,,,,,,1509.4228049294043,None,1509.9235039663408,None,1509.9235039663408,None,right,1,0.88244152000334,1509.9235039663408,None,,,,,,,,,,,,,1510.8233352930101,None,,,,,,,,,,,,,,,,,,,,,,,,,,,,,,,,,1499.4316879424705,None,1499.4316879424705,None,1499.9317698896766,None,1508.9333071615447,1508.9333071615447,0.009877957998469356,None,1508.9333071615447,1508.9333071615447,1512.3239205019077,None,1512.3239205019077,None,None,0.007858304137698724,None,,NENA_028,001,2021_Jan_27_1126,test7,3.2.4,99.97117444146842,
180,15,Fönstret som hade morgonsol och vette ut mot gården med de vackra rosenbuskarna var väldigt smutsigt och behövde tvättas omgående. ,16,,0,,cor,1,no,181,199,,,,,,,,,,,,,0,100,100,100,,,,,,,,,,,,,,,,,,,,,,,,,,,,,,,,,,,,,,,,,,,,,,,,,,,,,,,,,,,,,,,,,,,,,,,,,,,,,,,,,,,,,,,,,,,,,1523.825295290585,None,1524.3259593676567,None,1524.3259593676567,None,left,1,0.4398040836331347,1524.3259593676567,None,,,,,,,,,,,,,1524.7758553059293,None,,,,,,,,,,,,,,,,,,,,,,,,,,,,,,,,,1512.3339353486253,None,1512.3339353486253,None,1512.8340067116524,None,1523.3358308789257,1523.3358308789257,0.009878278729956946,None,1523.3358308789257,1523.3358308789257,1526.2763532755312,None,1526.2763532755312,None,None,0.008633835825094138,None,,NENA_028,001,2021_Jan_27_1126,test7,3.2.4,99.97117444146842,
170,30,Leken är särskilt svårt för nybörjare.  ,4,,0,,inc,1,no,172,199,,,,,,,,,,,,,0,101,101,101,,,,,,,,,,,,,,,,,,,,,,,,,,,,,,,,,,,,,,,,,,,,,,,,,,,,,,,,,,,,,,,,,,,,,,,,,,,,,,,,,,,,,,,,,,,,,1530.7765028652657,None,1531.2771672630688,None,1531.2771672630688,None,right,1,0.35225271428134874,1531.2771672630688,None,,,,,,,,,,,,,1531.6469810552817,None,,,,,,,,,,,,,,,,,,,,,,,,,,,,,,,,,1526.2863264269954,None,1526.2863264269954,None,1526.786329153224,None,1530.2870445475282,1530.2870445475282,0.009876354333755444,None,1530.2870445475282,1530.2870445475282,1533.1475207201352,None,1533.1475207201352,None,None,0.008518692784491577,None,,NENA_028,001,2021_Jan_27_1126,test7,3.2.4,99.97117444146842,
160,31,Bondsonen i granngården sätter en ny sorts potatis som de något äldre bönderna i samhället inte vill använda.,16,,17,,cor,1,no,161,162,,,,,,,,,,,,,0,102,102,102,,,,,,,,,,,,,,,,,,,,,,,,,,,,,,,,,,,,,,,,,,,,,,,,,,,,,,,,,,,,,,,,,,,,,,,,,,,,,,,,,,,,,,,,,,,,,1543.6487284070708,None,1544.1494373867217,None,1544.1494373867217,None,left,1,0.5998557985749358,1544.1494373867217,None,,,,,,,,,,,,,1544.7594809390148,None,,,,,,,,,,,,,,,,,,,,,,,,,,,,,,,,,1533.1575240204738,None,1533.1575240204738,None,1533.6576094957409,None,1543.1592838808401,1543.1592838808401,0.009878278729956946,None,1543.1592838808401,1543.1592838808401,1546.2597890348538,None,1546.2597890348538,None,None,0.008298349413962569,None,,NENA_028,001,2021_Jan_27_1126,test7,3.2.4,99.97117444146842,
160,20,Ordningsvakten med det långa håret stängde den enda öppna dörren som den väldigt glömska kollegan från nattskiftet hade inte stängt.,18,,19,,inc,1,no,163,164,,,,,,,,,,,,,0,103,103,103,,,,,,,,,,,,,,,,,,,,,,,,,,,,,,,,,,,,,,,,,,,,,,,,,,,,,,,,,,,,,,,,,,,,,,,,,,,,,,,,,,,,,,,,,,,,,1557.7711783815894,None,1558.271857212364,None,1558.271857212364,None,right,1,1.9489066382357123,1558.271857212364,None,,,,,,,,,,,,,1560.2319997588083,None,,,,,,,,,,,,,,,,,,,,,,,,,,,,,,,,,1546.2697872034705,None,1546.2697872034705,None,1546.7698864702443,None,1557.2816950466995,1557.2816950466995,0.0098731470079656,None,1557.2816950466995,1557.2816950466995,1561.7324557124252,None,1561.7324557124252,None,None,0.00861972358507046,None,,NENA_028,001,2021_Jan_27_1126,test7,3.2.4,99.97117444146842,
170,84,Förklädet var högt värderad under 1800-talet.  ,4,,0,,inc,1,no,174,199,,,,,,,,,,,,,0,104,104,104,,,,,,,,,,,,,,,,,,,,,,,,,,,,,,,,,,,,,,,,,,,,,,,,,,,,,,,,,,,,,,,,,,,,,,,,,,,,,,,,,,,,,,,,,,,,,1566.2426275578027,None,1566.7433269154726,None,1566.7433269154726,None,right,1,1.0372466893168166,1566.7433269154726,None,,,,,,,,,,,,,1567.793326257969,None,,,,,,,,,,,,,,,,,,,,,,,,,,,,,,,,,1561.742478577461,None,1561.742478577461,None,1562.2425634112615,None,1565.753175013254,1565.753175013254,0.009863204293651506,None,1565.753175013254,1565.753175013254,1569.2937680993477,None,1569.2937680993477,None,None,0.007516723808294046,None,,NENA_028,001,2021_Jan_27_1126,test7,3.2.4,99.97117444146842,
170,89,Draken är för bred för den starka vinden. ,4,,0,,cor,1,no,171,199,,,,,,,,,,,,,0,105,105,105,,,,,,,,,,,,,,,,,,,,,,,,,,,,,,,,,,,,,,,,,,,,,,,,,,,,,,,,,,,,,,,,,,,,,,,,,,,,,,,,,,,,,,,,,,,,,1574.7941159018947,None,1575.2948056375835,None,1575.2948056375835,None,left,1,1.0695589059305348,1575.2948056375835,None,,,,,,,,,,,,,1576.3747550003036,None,,,,,,,,,,,,,,,,,,,,,,,,,,,,,,,,,1569.3037819838673,None,1569.3037819838673,None,1569.8038655347364,None,1574.304620699896,1574.304620699896,0.009876675067062024,None,1574.304620699896,1574.304620699896,1577.8752837602447,None,1577.8752837602447,None,None,0.007799289322065306,None,,NENA_028,001,2021_Jan_27_1126,test7,3.2.4,99.97117444146842,
170,96,Skämtet är ganska komisk men kan inte visas på teve.,4,,0,,inc,1,no,174,199,,,,,,,,,,,,,0,106,106,106,,,,,,,,,,,,,,,,,,,,,,,,,,,,,,,,,,,,,,,,,,,,,,,,,,,,,,,,,,,,,,,,,,,,,,,,,,,,,,,,,,,,,,,,,,,,,1584.3757588936778,None,1584.8764816648336,None,1584.8764816648336,None,right,1,0.5835693124226964,1584.8764816648336,None,,,,,,,,,,,,,1585.4763862147802,None,,,,,,,,,,,,,,,,,,,,,,,,,,,,,,,,,1577.8852687788194,None,1577.8852687788194,None,1578.385344952837,None,1583.8863249516262,1583.8863249516262,0.009864807958365418,None,1583.8863249516262,1583.8863249516262,1586.9768434513285,None,1586.9768434513285,None,None,0.00807800604525255,None,,NENA_028,001,2021_Jan_27_1126,test7,3.2.4,99.97117444146842,
150,102,Flickan köpte godis som vännen kunde inte äta.  ,6,,7,,inc,1,no,153,154,,,,,,,,,,,,,0,107,107,107,,,,,,,,,,,,,,,,,,,,,,,,,,,,,,,,,,,,,,,,,,,,,,,,,,,,,,,,,,,,,,,,,,,,,,,,,,,,,,,,,,,,,,,,,,,,,1592.477193499005,None,1592.9778861212862,None,1592.9778861212862,None,right,1,1.1300529433483462,1592.9778861212862,None,,,,,,,,,,,,,1594.1180883304287,None,,,,,,,,,,,,,,,,,,,,,,,,,,,,,,,,,1586.9868470724005,None,1586.9868470724005,None,1587.4869344720619,None,1591.9877008628673,1591.9877008628673,0.009871222611764097,None,1591.9877008628673,1591.9877008628673,1595.6183409395094,None,1595.6183409395094,None,None,0.008297387215861818,None,,NENA_028,001,2021_Jan_27_1126,test7,3.2.4,99.97117444146842,
