trig_exp,trig_item,sentence,trig_w1,trig1,trig_w2,trig2,gram,task,paus,trig_1,trig_2,prac_trials.thisRepN,prac_trials.thisTrialN,prac_trials.thisN,prac_trials.thisIndex,trials_2.thisRepN,trials_2.thisTrialN,trials_2.thisN,trials_2.thisIndex,trials.thisRepN,trials.thisTrialN,trials.thisN,trials.thisIndex,exp_trials.thisRepN,exp_trials.thisTrialN,exp_trials.thisN,exp_trials.thisIndex,grating_1.started,grating_1.stopped,text_1.started,text_1.stopped,key_resp_1.keys,key_resp_1.rt,key_resp_1.started,key_resp_1.stopped,grating_2.started,grating_2.stopped,text_2.started,text_2.stopped,key_resp_2.keys,key_resp_2.rt,key_resp_2.started,key_resp_2.stopped,grating_3.started,grating_3.stopped,text_3.started,text_3.stopped,key_resp_3.keys,key_resp_3.rt,key_resp_3.started,key_resp_3.stopped,grating_4.started,grating_4.stopped,text_4.started,text_4.stopped,key_resp_4.keys,key_resp_4.rt,key_resp_4.started,key_resp_4.stopped,grating_5.started,grating_5.stopped,text_5.started,text_5.stopped,key_resp_5.keys,key_resp_5.rt,key_resp_5.started,key_resp_5.stopped,grating_6.started,grating_6.stopped,text_6.started,text_6.stopped,key_resp_6.keys,key_resp_6.rt,key_resp_6.started,key_resp_6.stopped,grating_7.started,grating_7.stopped,text_7.started,text_7.stopped,key_resp_7.keys,key_resp_7.rt,key_resp_7.started,key_resp_7.stopped,grating_8.started,grating_8.stopped,text_8.started,text_8.stopped,key_resp_8.keys,key_resp_8.rt,key_resp_8.started,key_resp_8.stopped,grating_9.started,grating_9.stopped,text_9.started,text_9.stopped,key_resp_9.keys,key_resp_9.rt,key_resp_9.started,key_resp_9.stopped,grating.started,grating.stopped,text.started,text.stopped,key_resp.keys,key_resp.rt,key_resp.started,key_resp.stopped,grating_14.started,grating_14.stopped,text_fix_4.started,text_fix_4.stopped,grating_16.started,grating_16.stopped,grating_40.started,grating_40.stopped,ISI_4.started,ISI_4.stopped,text_19.started,text_19.stopped,grating_24.started,grating_24.stopped,grating_35.started,grating_35.stopped,prompt.started,prompt.stopped,Button_Press.keys,Button_Press.corr,Button_Press.rt,Button_Press.started,Button_Press.stopped,grating_33.started,grating_33.stopped,grating_34.started,grating_34.stopped,Correct_Incorrect.started,Correct_Incorrect.stopped,Continue_text.started,Continue_text.stopped,Press_Bar.keys,Press_Bar.rt,Press_Bar.started,Press_Bar.stopped,grating_26.started,grating_26.stopped,grating_27.started,grating_27.stopped,text_10.started,text_10.stopped,key_resp_11.keys,key_resp_11.rt,key_resp_11.started,key_resp_11.stopped,grating_28.started,grating_28.stopped,text_11.started,text_11.stopped,key_resp_12.keys,key_resp_12.rt,key_resp_12.started,key_resp_12.stopped,grating_29.started,grating_29.stopped,text_12.started,text_12.stopped,key_resp_13.keys,key_resp_13.rt,key_resp_13.started,key_resp_13.stopped,grating_36.started,grating_36.stopped,text_14.started,text_14.stopped,key_resp_14.keys,key_resp_14.rt,key_resp_14.started,key_resp_14.stopped,grating_10.started,grating_10.stopped,text_fix.started,text_fix.stopped,grating_11.started,grating_11.stopped,grating_37.started,grating_37.stopped,ISI_2.started,ISI_2.stopped,text_15.started,text_15.stopped,grating_38.started,grating_38.stopped,text_fix_3.started,text_fix_3.stopped,key_resp_16.keys,key_resp_16.started,key_resp_16.stopped,key_resp_16.rt,participant,session,date,expName,psychopyVersion,frameRate,
,,,,,,,,,,,,,,,,,,,,,,,,,,,,16.77304678379096,None,16.77304678379096,None,space,307.6265392105788,16.77304678379096,None,,,,,,,,,,,,,,,,,,,,,,,,,,,,,,,,,,,,,,,,,,,,,,,,,,,,,,,,,,,,,,,,,,,,,,,,,,,,,,,,,,,,,,,,,,,,,,,,,,,,,,,,,,,,,,,,,,,,,,,,,,,,,,,,,,,,,,,,,,,,,,,,,,,,,,,,,,,,,,,,,,NENA_029,001,2021_Jan_29_1335,test7,3.2.4,99.96479561939744,
,,,,,,,,,,,,,,,,,,,,,,,,,,,,,,,,,,,,324.4090323019336,None,324.4090323019336,None,space,21.59776857765246,324.4090323019336,None,,,,,,,,,,,,,,,,,,,,,,,,,,,,,,,,,,,,,,,,,,,,,,,,,,,,,,,,,,,,,,,,,,,,,,,,,,,,,,,,,,,,,,,,,,,,,,,,,,,,,,,,,,,,,,,,,,,,,,,,,,,,,,,,,,,,,,,,,,,,,,,,,,,,,,,,,,NENA_029,001,2021_Jan_29_1335,test7,3.2.4,99.96479561939744,
,,,,,,,,,,,,,,,,,,,,,,,,,,,,,,,,,,,,,,,,,,,,346.02313755199157,None,346.02313755199157,None,space,4.551700989662095,346.02313755199157,None,,,,,,,,,,,,,,,,,,,,,,,,,,,,,,,,,,,,,,,,,,,,,,,,,,,,,,,,,,,,,,,,,,,,,,,,,,,,,,,,,,,,,,,,,,,,,,,,,,,,,,,,,,,,,,,,,,,,,,,,,,,,,,,,,,,,,,,,,,,,,,,,,,NENA_029,001,2021_Jan_29_1335,test7,3.2.4,99.96479561939744,
,,,,,,,,,,,,,,,,,,,,,,,,,,,,,,,,,,,,,,,,,,,,,,,,,,,,350.5839483974769,None,350.5839483974769,None,space,10.022739518999515,350.5839483974769,None,,,,,,,,,,,,,,,,,,,,,,,,,,,,,,,,,,,,,,,,,,,,,,,,,,,,,,,,,,,,,,,,,,,,,,,,,,,,,,,,,,,,,,,,,,,,,,,,,,,,,,,,,,,,,,,,,,,,,,,,,,,,,,,,,,,,,,,,,,NENA_029,001,2021_Jan_29_1335,test7,3.2.4,99.96479561939744,
,,,,,,,,,,,,,,,,,,,,,,,,,,,,,,,,,,,,,,,,,,,,,,,,,,,,,,,,,,,,360.62581787601175,None,360.62581787601175,None,space,5.25277308078239,360.62581787601175,None,,,,,,,,,,,,,,,,,,,,,,,,,,,,,,,,,,,,,,,,,,,,,,,,,,,,,,,,,,,,,,,,,,,,,,,,,,,,,,,,,,,,,,,,,,,,,,,,,,,,,,,,,,,,,,,,,,,,,,,,,,,,,,,,,,NENA_029,001,2021_Jan_29_1335,test7,3.2.4,99.96479561939744,
,,,,,,,,,,,,,,,,,,,,,,,,,,,,,,,,,,,,,,,,,,,,,,,,,,,,,,,,,,,,,,,,,,,,365.89675325675034,None,365.89675325675034,None,space,15.38960373746886,365.89675325675034,None,,,,,,,,,,,,,,,,,,,,,,,,,,,,,,,,,,,,,,,,,,,,,,,,,,,,,,,,,,,,,,,,,,,,,,,,,,,,,,,,,,,,,,,,,,,,,,,,,,,,,,,,,,,,,,,,,,,,,,,,,,NENA_029,001,2021_Jan_29_1335,test7,3.2.4,99.96479561939744,
,,,,,,,,,,,,,,,,,,,,,,,,,,,,,,,,,,,,,,,,,,,,,,,,,,,,,,,,,,,,,,,,,,,,,,,,,,,,381.2994638582195,None,381.2994638582195,None,space,3.3788234901694523,381.2994638582195,None,,,,,,,,,,,,,,,,,,,,,,,,,,,,,,,,,,,,,,,,,,,,,,,,,,,,,,,,,,,,,,,,,,,,,,,,,,,,,,,,,,,,,,,,,,,,,,,,,,,,,,,,,,,,,,,,,,NENA_029,001,2021_Jan_29_1335,test7,3.2.4,99.96479561939744,
,,,,,,,,,,,,,,,,,,,,,,,,,,,,,,,,,,,,,,,,,,,,,,,,,,,,,,,,,,,,,,,,,,,,,,,,,,,,,,,,,,,,384.6900769509075,None,384.6900769509075,None,space,3.1721712395019495,384.6900769509075,None,,,,,,,,,,,,,,,,,,,,,,,,,,,,,,,,,,,,,,,,,,,,,,,,,,,,,,,,,,,,,,,,,,,,,,,,,,,,,,,,,,,,,,,,,,,,,,,,,,,,,,,,,,NENA_029,001,2021_Jan_29_1335,test7,3.2.4,99.96479561939744,
,,,,,,,,,,,,,,,,,,,,,,,,,,,,,,,,,,,,,,,,,,,,,,,,,,,,,,,,,,,,,,,,,,,,,,,,,,,,,,,,,,,,,,,,,,,,387.88070909529506,None,387.88070909529506,None,space,0.9975235997317213,387.88070909529506,None,,,,,,,,,,,,,,,,,,,,,,,,,,,,,,,,,,,,,,,,,,,,,,,,,,,,,,,,,,,,,,,,,,,,,,,,,,,,,,,,,,,,,,,,,,,,,,,,,,NENA_029,001,2021_Jan_29_1335,test7,3.2.4,99.96479561939744,
,,,,,,,,,,,,,,,,,,,,,,,,,,,,,,,,,,,,,,,,,,,,,,,,,,,,,,,,,,,,,,,,,,,,,,,,,,,,,,,,,,,,,,,,,,,,,,,,,,,,388.89085524813436,None,388.89085524813436,None,space,1.1713068568160452,388.89085524813436,None,,,,,,,,,,,,,,,,,,,,,,,,,,,,,,,,,,,,,,,,,,,,,,,,,,,,,,,,,,,,,,,,,,,,,,,,,,,,,,,,,,,,,,,,,,NENA_029,001,2021_Jan_29_1335,test7,3.2.4,99.96479561939744,
199,1,Meningarna presenteras ord för ord.,99,99,99,99,cor,1,no,,,0,0,0,0,0,0,0,0,0,0,0,0,,,,,,,,,,,,,,,,,,,,,,,,,,,,,,,,,,,,,,,,,,,,,,,,,,,,,,,,,,,,,,,,,,,,,,,,,,,,,,,,,,,,,390.1405165512451,None,390.1405165512451,None,390.59129645215035,None,393.6018396757754,393.6018396757754,0.009895882780256215,None,393.6018396757754,393.6018396757754,394.0912509076825,None,394.601795734985,None,394.601795734985,None,left,1,4.572233847109601,394.601795734985,None,399.1925758026737,None,399.53257423748346,None,399.53257423748346,None,399.53257423748346,None,space,3.12939696558351,399.53257423748346,None,,,,,,,,,,,,,,,,,,,,,,,,,,,,,,,,,,,,,,,,,,,,,,,,,,,,,,,NENA_029,001,2021_Jan_29_1335,test7,3.2.4,99.96479561939744,
199,1,Meningarna presenteras ord för ord.,99,99,99,99,cor,1,no,,,0,0,0,0,0,0,0,0,,,,,,,,,,,,,,,,,,,,,,,,,,,,,,,,,,,,,,,,,,,,,,,,,,,,,,,,,,,,,,,,,,,,,,,,,,,,,,,,,,,,,,,,,,,,,,,,,,,,,,,,,,,,,,,,,,,,,,,,,,,,,,,,,,,,,,,,,,,,,,,,,,,,,,,,,,,,,,,,,,,,,,,,,,,,,,,,,,NENA_029,001,2021_Jan_29_1335,test7,3.2.4,99.96479561939744,
199,1,Meningarna presenteras ord för ord.,99,99,99,99,cor,1,no,,,0,0,0,0,,,,,,,,,,,,,,,,,,,,,,,,,,,,,,,,,,,,,,,,,,,,,,,,,,,,,,,,,,,,,,,,,,,,,,,,,,,,,,,,,,,,,,,,,,,,,,,,,,,,,,,,,,,,,,,,,,,,,,,,,,,,,,,,402.67316776529333,None,,,,,,,,,,,,,,,,,,,,,,,,,,,,,,,,,,,,,,,,,,,,,,,,,,,,,NENA_029,001,2021_Jan_29_1335,test7,3.2.4,99.96479561939744,
199,2,Läs meningen noggrant och ange ditt svar när du ser frågetecknet.,99,99,99,99,cor,1,no,,,0,1,1,1,0,0,0,0,0,0,0,0,,,,,,,,,,,,,,,,,,,,,,,,,,,,,,,,,,,,,,,,,,,,,,,,,,,,,,,,,,,,,,,,,,,,,,,,,,,,,,,,,,,,,404.173434617388,None,404.173434617388,None,404.67384580054386,None,410.67489556845976,410.67489556845976,0.00989620351629128,None,410.67489556845976,410.67489556845976,411.16434881674195,None,411.6651474486116,None,411.6651474486116,None,left,1,1.9567141526549676,411.6651474486116,None,413.645507519328,None,413.9455592860686,None,413.9455592860686,None,413.9455592860686,None,space,4.460308637540038,413.9455592860686,None,,,,,,,,,,,,,,,,,,,,,,,,,,,,,,,,,,,,,,,,,,,,,,,,,,,,,,,NENA_029,001,2021_Jan_29_1335,test7,3.2.4,99.96479561939744,
199,2,Läs meningen noggrant och ange ditt svar när du ser frågetecknet.,99,99,99,99,cor,1,no,,,0,1,1,1,0,0,0,0,,,,,,,,,,,,,,,,,,,,,,,,,,,,,,,,,,,,,,,,,,,,,,,,,,,,,,,,,,,,,,,,,,,,,,,,,,,,,,,,,,,,,,,,,,,,,,,,,,,,,,,,,,,,,,,,,,,,,,,,,,,,,,,,,,,,,,,,,,,,,,,,,,,,,,,,,,,,,,,,,,,,,,,,,,,,,,,,,,NENA_029,001,2021_Jan_29_1335,test7,3.2.4,99.96479561939744,
199,2,Läs meningen noggrant och ange ditt svar när du ser frågetecknet.,99,99,99,99,cor,1,no,,,0,1,1,1,,,,,,,,,,,,,,,,,,,,,,,,,,,,,,,,,,,,,,,,,,,,,,,,,,,,,,,,,,,,,,,,,,,,,,,,,,,,,,,,,,,,,,,,,,,,,,,,,,,,,,,,,,,,,,,,,,,,,,,,,,,,,,,,418.4263289362616,None,,,,,,,,,,,,,,,,,,,,,,,,,,,,,,,,,,,,,,,,,,,,,,,,,,,,,NENA_029,001,2021_Jan_29_1335,test7,3.2.4,99.96479561939744,
199,3,I den här meningen finns det en misstag.,99,99,99,99,inc,1,no,,,0,2,2,2,0,0,0,0,0,0,0,0,,,,,,,,,,,,,,,,,,,,,,,,,,,,,,,,,,,,,,,,,,,,,,,,,,,,,,,,,,,,,,,,,,,,,,,,,,,,,,,,,,,,,419.92663716326024,None,419.92663716326024,None,420.4267388364742,None,424.92755542954274,424.92755542954274,0.009909353680086497,None,424.92755542954274,424.92755542954274,425.41694773804375,None,425.9177656140555,None,425.9177656140555,None,right,1,5.855946375558233,425.9177656140555,None,431.7884831511128,None,432.08870137967733,None,432.08870137967733,None,432.08870137967733,None,space,3.1327852174199506,432.08870137967733,None,,,,,,,,,,,,,,,,,,,,,,,,,,,,,,,,,,,,,,,,,,,,,,,,,,,,,,,NENA_029,001,2021_Jan_29_1335,test7,3.2.4,99.96479561939744,
199,3,I den här meningen finns det en misstag.,99,99,99,99,inc,1,no,,,0,2,2,2,0,0,0,0,,,,,,,,,,,,,,,,,,,,,,,,,,,,,,,,,,,,,,,,,,,,,,,,,,,,,,,,,,,,,,,,,,,,,,,,,,,,,,,,,,,,,,,,,,,,,,,,,,,,,,,,,,,,,,,,,,,,,,,,,,,,,,,,,,,,,,,,,,,,,,,,,,,,,,,,,,,,,,,,,,,,,,,,,,,,,,,,,,NENA_029,001,2021_Jan_29_1335,test7,3.2.4,99.96479561939744,
199,3,I den här meningen finns det en misstag.,99,99,99,99,inc,1,no,,,0,2,2,2,,,,,,,,,,,,,,,,,,,,,,,,,,,,,,,,,,,,,,,,,,,,,,,,,,,,,,,,,,,,,,,,,,,,,,,,,,,,,,,,,,,,,,,,,,,,,,,,,,,,,,,,,,,,,,,,,,,,,,,,,,,,,,,,435.23912256978565,None,,,,,,,,,,,,,,,,,,,,,,,,,,,,,,,,,,,,,,,,,,,,,,,,,,,,,NENA_029,001,2021_Jan_29_1335,test7,3.2.4,99.96479561939744,
199,4,I det här meningen finns det ett till misstag.,99,99,99,99,inc,1,no,,,0,3,3,3,0,0,0,0,0,0,0,0,,,,,,,,,,,,,,,,,,,,,,,,,,,,,,,,,,,,,,,,,,,,,,,,,,,,,,,,,,,,,,,,,,,,,,,,,,,,,,,,,,,,,436.739721062585,None,436.739721062585,None,437.23971047830673,None,442.2407211164682,442.2407211164682,0.009908391471981304,None,442.2407211164682,442.2407211164682,442.73009770892077,None,443.2309043591831,None,443.2309043591831,None,right,1,2.9503950180769607,443.2309043591831,None,446.1922335776917,None,446.49131479823154,None,446.49131479823154,None,446.49131479823154,None,space,11.121952690202306,446.49131479823154,None,,,,,,,,,,,,,,,,,,,,,,,,,,,,,,,,,,,,,,,,,,,,,,,,,,,,,,,NENA_029,001,2021_Jan_29_1335,test7,3.2.4,99.96479561939744,
199,4,I det här meningen finns det ett till misstag.,99,99,99,99,inc,1,no,,,0,3,3,3,0,0,0,0,,,,,,,,,,,,,,,,,,,,,,,,,,,,,,,,,,,,,,,,,,,,,,,,,,,,,,,,,,,,,,,,,,,,,,,,,,,,,,,,,,,,,,,,,,,,,,,,,,,,,,,,,,,,,,,,,,,,,,,,,,,,,,,,,,,,,,,,,,,,,,,,,,,,,,,,,,,,,,,,,,,,,,,,,,,,,,,,,,NENA_029,001,2021_Jan_29_1335,test7,3.2.4,99.96479561939744,
199,4,I det här meningen finns det ett till misstag.,99,99,99,99,inc,1,no,,,0,3,3,3,,,,,,,,,,,,,,,,,,,,,,,,,,,,,,,,,,,,,,,,,,,,,,,,,,,,,,,,,,,,,,,,,,,,,,,,,,,,,,,,,,,,,,,,,,,,,,,,,,,,,,,,,,,,,,,,,,,,,,,,,,,,,,,,457.6244701446394,None,,,,,,,,,,,,,,,,,,,,,,,,,,,,,,,,,,,,,,,,,,,,,,,,,,,,,NENA_029,001,2021_Jan_29_1335,test7,3.2.4,99.96479561939744,
199,5,Ibland kan meningarna låta lite märkliga men ändå vara grammatiskt korrekta.,99,99,99,99,cor,1,no,,,0,4,4,4,0,0,0,0,0,0,0,0,,,,,,,,,,,,,,,,,,,,,,,,,,,,,,,,,,,,,,,,,,,,,,,,,,,,,,,,,,,,,,,,,,,,,,,,,,,,,,,,,,,,,459.12379563748163,None,459.12379563748163,None,459.62383637091443,None,465.6249451541971,465.6249451541971,0.009909674414302572,None,465.6249451541971,465.6249451541971,466.1143939121803,None,466.6151636778377,None,466.6151636778377,None,left,1,0.4058605466880181,466.6151636778377,None,467.03605165384215,None,467.33520664359094,None,467.33520664359094,None,467.33520664359094,None,space,2.029772290488836,467.33520664359094,None,,,,,,,,,,,,,,,,,,,,,,,,,,,,,,,,,,,,,,,,,,,,,,,,,,,,,,,NENA_029,001,2021_Jan_29_1335,test7,3.2.4,99.96479561939744,
199,5,Ibland kan meningarna låta lite märkliga men ändå vara grammatiskt korrekta.,99,99,99,99,cor,1,no,,,0,4,4,4,0,0,0,0,,,,,,,,,,,,,,,,,,,,,,,,,,,,,,,,,,,,,,,,,,,,,,,,,,,,,,,,,,,,,,,,,,,,,,,,,,,,,,,,,,,,,,,,,,,,,,,,,,,,,,,,,,,,,,,,,,,,,,,,,,,,,,,,,,,,,,,,,,,,,,,,,,,,,,,,,,,,,,,,,,,,,,,,,,,,,,,,,,NENA_029,001,2021_Jan_29_1335,test7,3.2.4,99.96479561939744,
199,5,Ibland kan meningarna låta lite märkliga men ändå vara grammatiskt korrekta.,99,99,99,99,cor,1,no,,,0,4,4,4,,,,,,,,,,,,,,,,,,,,,,,,,,,,,,,,,,,,,,,,,,,,,,,,,,,,,,,,,,,,,,,,,,,,,,,,,,,,,,,,,,,,,,,,,,,,,,,,,,,,,,,,,,,,,,,,,,,,,,,,,,,,,,,,469.3856689520153,None,,,,,,,,,,,,,,,,,,,,,,,,,,,,,,,,,,,,,,,,,,,,,,,,,,,,,NENA_029,001,2021_Jan_29_1335,test7,3.2.4,99.96479561939744,
199,6,De gröna idéerna missade bussen i morse.,99,99,99,99,cor,1,no,,,0,5,5,5,0,0,0,0,0,0,0,0,,,,,,,,,,,,,,,,,,,,,,,,,,,,,,,,,,,,,,,,,,,,,,,,,,,,,,,,,,,,,,,,,,,,,,,,,,,,,,,,,,,,,470.8858985987699,None,470.8858985987699,None,471.38603619438163,None,475.38676009483515,475.38676009483515,0.009906467057589907,None,475.38676009483515,475.38676009483515,475.87617645851424,None,476.3766389593802,None,476.3766389593802,None,left,1,1.3481874584649631,476.3766389593802,None,477.73724402084554,None,478.03705972611806,None,478.03705972611806,None,478.03705972611806,None,space,1.0477575443455862,478.03705972611806,None,,,,,,,,,,,,,,,,,,,,,,,,,,,,,,,,,,,,,,,,,,,,,,,,,,,,,,,NENA_029,001,2021_Jan_29_1335,test7,3.2.4,99.96479561939744,
199,6,De gröna idéerna missade bussen i morse.,99,99,99,99,cor,1,no,,,0,5,5,5,0,0,0,0,,,,,,,,,,,,,,,,,,,,,,,,,,,,,,,,,,,,,,,,,,,,,,,,,,,,,,,,,,,,,,,,,,,,,,,,,,,,,,,,,,,,,,,,,,,,,,,,,,,,,,,,,,,,,,,,,,,,,,,,,,,,,,,,,,,,,,,,,,,,,,,,,,,,,,,,,,,,,,,,,,,,,,,,,,,,,,,,,,NENA_029,001,2021_Jan_29_1335,test7,3.2.4,99.96479561939744,
199,6,De gröna idéerna missade bussen i morse.,99,99,99,99,cor,1,no,,,0,5,5,5,,,,,,,,,,,,,,,,,,,,,,,,,,,,,,,,,,,,,,,,,,,,,,,,,,,,,,,,,,,,,,,,,,,,,,,,,,,,,,,,,,,,,,,,,,,,,,,,,,,,,,,,,,,,,,,,,,,,,,,,,,,,,,,,479.0982936219789,None,,,,,,,,,,,,,,,,,,,,,,,,,,,,,,,,,,,,,,,,,,,,,,,,,,,,,NENA_029,001,2021_Jan_29_1335,test7,3.2.4,99.96479561939744,
199,7,Det bruna bordet är mer än hundra år gamla.,99,99,99,99,inc,1,no,,,0,6,6,6,0,0,0,0,0,0,0,0,,,,,,,,,,,,,,,,,,,,,,,,,,,,,,,,,,,,,,,,,,,,,,,,,,,,,,,,,,,,,,,,,,,,,,,,,,,,,,,,,,,,,480.59768679005174,None,480.59768679005174,None,481.09770314757225,None,486.0987250114831,486.0987250114831,0.009908712208925863,None,486.0987250114831,486.0987250114831,486.588135281183,None,487.0889242909816,None,487.0889242909816,None,right,1,0.4117005021435034,487.0889242909816,None,487.518703060332,None,487.81864770135144,None,487.81864770135144,None,487.81864770135144,None,space,1.2100312011680217,487.81864770135144,None,,,,,,,,,,,,,,,,,,,,,,,,,,,,,,,,,,,,,,,,,,,,,,,,,,,,,,,NENA_029,001,2021_Jan_29_1335,test7,3.2.4,99.96479561939744,
199,7,Det bruna bordet är mer än hundra år gamla.,99,99,99,99,inc,1,no,,,0,6,6,6,0,0,0,0,,,,,,,,,,,,,,,,,,,,,,,,,,,,,,,,,,,,,,,,,,,,,,,,,,,,,,,,,,,,,,,,,,,,,,,,,,,,,,,,,,,,,,,,,,,,,,,,,,,,,,,,,,,,,,,,,,,,,,,,,,,,,,,,,,,,,,,,,,,,,,,,,,,,,,,,,,,,,,,,,,,,,,,,,,,,,,,,,,NENA_029,001,2021_Jan_29_1335,test7,3.2.4,99.96479561939744,
199,7,Det bruna bordet är mer än hundra år gamla.,99,99,99,99,inc,1,no,,,0,6,6,6,,,,,,,,,,,,,,,,,,,,,,,,,,,,,,,,,,,,,,,,,,,,,,,,,,,,,,,,,,,,,,,,,,,,,,,,,,,,,,,,,,,,,,,,,,,,,,,,,,,,,,,,,,,,,,,,,,,,,,,,,,,,,,,,489.039737548399,None,,,,,,,,,,,,,,,,,,,,,,,,,,,,,,,,,,,,,,,,,,,,,,,,,,,,,NENA_029,001,2021_Jan_29_1335,test7,3.2.4,99.96479561939744,
199,8,På våren gilla alla att tillbringa tid i solen.,99,99,99,99,inc,1,no,,,0,7,7,7,0,0,0,0,0,0,0,0,,,,,,,,,,,,,,,,,,,,,,,,,,,,,,,,,,,,,,,,,,,,,,,,,,,,,,,,,,,,,,,,,,,,,,,,,,,,,,,,,,,,,490.53921827731574,None,490.53921827731574,None,491.0394909026536,None,496.0405368217407,496.0405368217407,0.009909674415212066,None,496.0405368217407,496.0405368217407,496.5299310546561,None,497.03072038519076,None,497.03072038519076,None,right,1,0.4377961994105135,497.03072038519076,None,497.48131554233896,None,497.7814045144196,None,497.7814045144196,None,497.7814045144196,None,space,0.7750969263252045,497.7814045144196,None,,,,,,,,,,,,,,,,,,,,,,,,,,,,,,,,,,,,,,,,,,,,,,,,,,,,,,,NENA_029,001,2021_Jan_29_1335,test7,3.2.4,99.96479561939744,
199,8,På våren gilla alla att tillbringa tid i solen.,99,99,99,99,inc,1,no,,,0,7,7,7,0,0,0,0,,,,,,,,,,,,,,,,,,,,,,,,,,,,,,,,,,,,,,,,,,,,,,,,,,,,,,,,,,,,,,,,,,,,,,,,,,,,,,,,,,,,,,,,,,,,,,,,,,,,,,,,,,,,,,,,,,,,,,,,,,,,,,,,,,,,,,,,,,,,,,,,,,,,,,,,,,,,,,,,,,,,,,,,,,,,,,,,,,NENA_029,001,2021_Jan_29_1335,test7,3.2.4,99.96479561939744,
199,8,På våren gilla alla att tillbringa tid i solen.,99,99,99,99,inc,1,no,,,0,7,7,7,,,,,,,,,,,,,,,,,,,,,,,,,,,,,,,,,,,,,,,,,,,,,,,,,,,,,,,,,,,,,,,,,,,,,,,,,,,,,,,,,,,,,,,,,,,,,,,,,,,,,,,,,,,,,,,,,,,,,,,,,,,,,,,,498.5808696555814,None,,,,,,,,,,,,,,,,,,,,,,,,,,,,,,,,,,,,,,,,,,,,,,,,,,,,,NENA_029,001,2021_Jan_29_1335,test7,3.2.4,99.96479561939744,
199,9,Tidningen avskedade dem journalist som publicerade falska fakta.,99,99,99,99,inc,1,no,,,0,8,8,8,0,0,0,0,0,0,0,0,,,,,,,,,,,,,,,,,,,,,,,,,,,,,,,,,,,,,,,,,,,,,,,,,,,,,,,,,,,,,,,,,,,,,,,,,,,,,,,,,,,,,500.0812882156579,None,500.0812882156579,None,500.5813696825235,None,505.08219814281256,505.08219814281256,0.009905504851303704,None,505.08219814281256,505.08219814281256,505.57156992423006,None,506.0723691975709,None,506.0723691975709,None,left,0,0.9319899212014207,506.0723691975709,None,507.02320586869337,None,507.34233210769526,None,507.34233210769526,None,507.34233210769526,None,space,1.6861489009024808,507.34233210769526,None,,,,,,,,,,,,,,,,,,,,,,,,,,,,,,,,,,,,,,,,,,,,,,,,,,,,,,,NENA_029,001,2021_Jan_29_1335,test7,3.2.4,99.96479561939744,
199,9,Tidningen avskedade dem journalist som publicerade falska fakta.,99,99,99,99,inc,1,no,,,0,8,8,8,0,0,0,0,,,,,,,,,,,,,,,,,,,,,,,,,,,,,,,,,,,,,,,,,,,,,,,,,,,,,,,,,,,,,,,,,,,,,,,,,,,,,,,,,,,,,,,,,,,,,,,,,,,,,,,,,,,,,,,,,,,,,,,,,,,,,,,,,,,,,,,,,,,,,,,,,,,,,,,,,,,,,,,,,,,,,,,,,,,,,,,,,,NENA_029,001,2021_Jan_29_1335,test7,3.2.4,99.96479561939744,
199,9,Tidningen avskedade dem journalist som publicerade falska fakta.,99,99,99,99,inc,1,no,,,0,8,8,8,,,,,,,,,,,,,,,,,,,,,,,,,,,,,,,,,,,,,,,,,,,,,,,,,,,,,,,,,,,,,,,,,,,,,,,,,,,,,,,,,,,,,,,,,,,,,,,,,,,,,,,,,,,,,,,,,,,,,,,,,,,,,,,,509.04353890780567,None,,,,,,,,,,,,,,,,,,,,,,,,,,,,,,,,,,,,,,,,,,,,,,,,,,,,,NENA_029,001,2021_Jan_29_1335,test7,3.2.4,99.96479561939744,
199,10,Bra jobbat!,99,99,99,99,cor,1,no,,,0,9,9,9,0,0,0,0,0,0,0,0,,,,,,,,,,,,,,,,,,,,,,,,,,,,,,,,,,,,,,,,,,,,,,,,,,,,,,,,,,,,,,,,,,,,,,,,,,,,,,,,,,,,,510.5431742313249,None,510.5431742313249,None,511.04326981056056,None,512.5435581519469,512.5435581519469,0.009895241309095582,None,512.5435581519469,512.5435581519469,513.0329292918932,None,513.5337497337896,None,513.5337497337896,None,left,1,0.9505999681823596,513.5337497337896,None,514.5038972593784,None,514.8239956482585,None,514.8239956482585,None,514.8239956482585,None,space,0.8282668854517397,514.8239956482585,None,,,,,,,,,,,,,,,,,,,,,,,,,,,,,,,,,,,,,,,,,,,,,,,,,,,,,,,NENA_029,001,2021_Jan_29_1335,test7,3.2.4,99.96479561939744,
199,10,Bra jobbat!,99,99,99,99,cor,1,no,,,0,9,9,9,0,0,0,0,,,,,,,,,,,,,,,,,,,,,,,,,,,,,,,,,,,,,,,,,,,,,,,,,,,,,,,,,,,,,,,,,,,,,,,,,,,,,,,,,,,,,,,,,,,,,,,,,,,,,,,,,,,,,,,,,,,,,,,,,,,,,,,,,,,,,,,,,,,,,,,,,,,,,,,,,,,,,,,,,,,,,,,,,,,,,,,,,,NENA_029,001,2021_Jan_29_1335,test7,3.2.4,99.96479561939744,
199,10,Bra jobbat!,99,99,99,99,cor,1,no,,,0,9,9,9,,,,,,,,,,,,,,,,,,,,,,,,,,,,,,,,,,,,,,,,,,,,,,,,,,,,,,,,,,,,,,,,,,,,,,,,,,,,,,,,,,,,,,,,,,,,,,,,,,,,,,,,,,,,,,,,,,,,,,,,,,,,,,,,515.6741482543002,None,,,,,,,,,,,,,,,,,,,,,,,,,,,,,,,,,,,,,,,,,,,,,,,,,,,,,NENA_029,001,2021_Jan_29_1335,test7,3.2.4,99.96479561939744,
,,,,,,,,,,,,,,,,,,,,,,,,,,,,,,,,,,,,,,,,,,,,,,,,,,,,,,,,,,,,,,,,,,,,,,,,,,,,,,,,,,,,,,,,,,,,,,,,,,,,,,,,,,,,,,,,,,,,,,,,,,,,,,,,,,,,,,,,,,,,,,,,,517.1743990696104,None,517.1743990696104,None,space,6.701640755499284,517.1743990696104,None,,,,,,,,,,,,,,,,,,,,,,,,,,,,,,,,,,,,,,,,,,,,,NENA_029,001,2021_Jan_29_1335,test7,3.2.4,99.96479561939744,
,,,,,,,,,,,,,,,,,,,,,,,,,,,,,,,,,,,,,,,,,,,,,,,,,,,,,,,,,,,,,,,,,,,,,,,,,,,,,,,,,,,,,,,,,,,,,,,,,,,,,,,,,,,,,,,,,,,,,,,,,,,,,,,,,,,,,,,,,,,,,,,,,,,,,,,,,523.8856128232701,None,523.8856128232701,None,space,53.901684888730415,523.8856128232701,None,,,,,,,,,,,,,,,,,,,,,,,,,,,,,,,,,,,,,NENA_029,001,2021_Jan_29_1335,test7,3.2.4,99.96479561939744,
,,,,,,,,,,,,,,,,,,,,,,,,,,,,,,,,,,,,,,,,,,,,,,,,,,,,,,,,,,,,,,,,,,,,,,,,,,,,,,,,,,,,,,,,,,,,,,,,,,,,,,,,,,,,,,,,,,,,,,,,,,,,,,,,,,,,,,,,,,,,,,,,,,,,,,,,,,,,,,,,,577.8053442263727,None,577.8053442263727,None,space,31.757406428569084,577.8053442263727,None,,,,,,,,,,,,,,,,,,,,,,,,,,,,,NENA_029,001,2021_Jan_29_1335,test7,3.2.4,99.96479561939744,
,,,,,,,,,,,,,,,,,,,,,,,,,,,,,,,,,,,,,,,,,,,,,,,,,,,,,,,,,,,,,,,,,,,,,,,,,,,,,,,,,,,,,,,,,,,,,,,,,,,,,,,,,,,,,,,,,,,,,,,,,,,,,,,,,,,,,,,,,,,,,,,,,,,,,,,,,,,,,,,,,,,,,,,,,609.5811361869401,None,609.5811361869401,None,space,1.0055580287835255,609.5811361869401,None,,,,,,,,,,,,,,,,,,,,,NENA_029,001,2021_Jan_29_1335,test7,3.2.4,99.96479561939744,
160,2,Den höga ljudnivån gav allvarliga skador på husgrunden som de flesta boende i de gamla radhusen inte kunde upptäcka direkt.,17,,18,,cor,1,no,161,162,,,,,,,,,,,,,0,0,0,0,,,,,,,,,,,,,,,,,,,,,,,,,,,,,,,,,,,,,,,,,,,,,,,,,,,,,,,,,,,,,,,,,,,,,,,,,,,,,,,,,,,,,,,,,,,,,622.1028586530647,None,622.6035508006853,None,622.6035508006853,None,left,1,0.4788478019345348,622.6035508006853,None,,,,,,,,,,,,,623.09398710386,None,,,,,,,,,,,,,,,,,,,,,,,,,,,,,,,,,610.7007895229763,None,610.7007895229763,None,611.1115493073394,None,621.6134663445628,621.6134663445628,0.009870544660770975,None,621.6134663445628,621.6134663445628,624.593997591917,None,624.593997591917,None,None,0.00669494058820419,None,,NENA_029,001,2021_Jan_29_1335,test7,3.2.4,99.96479561939744,
150,50,Riksdagen fattar beslut men kommunerna kan inte genomföra dem.  ,6,,7,,cor,1,no,155,156,,,,,,,,,,,,,0,1,1,1,,,,,,,,,,,,,,,,,,,,,,,,,,,,,,,,,,,,,,,,,,,,,,,,,,,,,,,,,,,,,,,,,,,,,,,,,,,,,,,,,,,,,,,,,,,,,630.5944348508838,None,631.0951128861343,None,631.0951128861343,None,left,1,1.8031507149844401,631.0951128861343,None,,,,,,,,,,,,,632.9154322619052,None,,,,,,,,,,,,,,,,,,,,,,,,,,,,,,,,,624.6049492082966,None,624.6049492082966,None,625.1041002209231,None,630.105006299249,630.105006299249,0.009882091145300365,None,630.105006299249,630.105006299249,634.4157830505306,None,634.4157830505306,None,None,0.007994882342245546,None,,NENA_029,001,2021_Jan_29_1335,test7,3.2.4,99.96479561939744,
140,39,Astronomer observerar gärna stjärnor med stor spegelteleskop.,3,,4,,inc,1,no,133,134,,,,,,,,,,,,,0,2,2,2,,,,,,,,,,,,,,,,,,,,,,,,,,,,,,,,,,,,,,,,,,,,,,,,,,,,,,,,,,,,,,,,,,,,,,,,,,,,,,,,,,,,,,,,,,,,,639.4160025299634,None,639.9168155949392,None,639.9168155949392,None,right,1,3.36543405802513,639.9168155949392,None,,,,,,,,,,,,,643.297264252853,None,,,,,,,,,,,,,,,,,,,,,,,,,,,,,,,,,634.425817042099,None,634.425817042099,None,634.9258853588008,None,638.9266259375108,638.9266259375108,0.009876638639070734,None,638.9266259375108,638.9266259375108,644.7977074133565,None,644.7977074133565,None,None,0.008637315929263423,None,,NENA_029,001,2021_Jan_29_1335,test7,3.2.4,99.96479561939744,
170,88,Kajaken var för smalt för det öppna havet. ,4,,0,,inc,1,no,172,199,,,,,,,,,,,,,0,3,3,3,,,,,,,,,,,,,,,,,,,,,,,,,,,,,,,,,,,,,,,,,,,,,,,,,,,,,,,,,,,,,,,,,,,,,,,,,,,,,,,,,,,,,,,,,,,,,650.2980083596558,None,650.798790634005,None,650.798790634005,None,right,1,1.315434250466751,650.798790634005,None,,,,,,,,,,,,,652.1287734554016,None,,,,,,,,,,,,,,,,,,,,,,,,,,,,,,,,,644.807691370158,None,644.807691370158,None,645.3076487123108,None,649.8086186170394,649.8086186170394,0.009877600846266432,None,649.8086186170394,649.8086186170394,653.6293279111902,None,653.6293279111902,None,None,0.007721936269263097,None,,NENA_029,001,2021_Jan_29_1335,test7,3.2.4,99.96479561939744,
160,52,Tre promenader i veckan har positiva effekter på hjärnan som många människor med lätt eller medelsvår depression bör inte vara utan.,18,,19,,inc,1,no,163,164,,,,,,,,,,,,,0,4,4,4,,,,,,,,,,,,,,,,,,,,,,,,,,,,,,,,,,,,,,,,,,,,,,,,,,,,,,,,,,,,,,,,,,,,,,,,,,,,,,,,,,,,,,,,,,,,,665.6308021086452,None,666.1316055515499,None,666.1316055515499,None,left,0,2.6382178385492807,666.1316055515499,None,,,,,,,,,,,,,668.7823202148165,None,,,,,,,,,,,,,,,,,,,,,,,,,,,,,,,,,653.6393121887268,None,653.6393121887268,None,654.1393468281813,None,665.1414168563288,665.1414168563288,0.009880808202979097,None,665.1414168563288,665.1414168563288,670.2823598898209,None,670.2823598898209,None,None,0.008100083648059808,None,,NENA_029,001,2021_Jan_29_1335,test7,3.2.4,99.96479561939744,
160,42,Det dåliga vädret innebär en stor förlust som de flesta invånarna i den lilla badorten inte har förutsett.,16,,17,,cor,1,no,161,162,,,,,,,,,,,,,0,5,5,5,,,,,,,,,,,,,,,,,,,,,,,,,,,,,,,,,,,,,,,,,,,,,,,,,,,,,,,,,,,,,,,,,,,,,,,,,,,,,,,,,,,,,,,,,,,,,680.7835791024027,None,681.2841843306505,None,681.2841843306505,None,left,1,0.9014270172347096,681.2841843306505,None,,,,,,,,,,,,,682.1942016118892,None,,,,,,,,,,,,,,,,,,,,,,,,,,,,,,,,,670.292360524878,None,670.292360524878,None,670.7924387843868,None,680.2941790962441,680.2941790962441,0.009883053353405558,None,680.2941790962441,680.2941790962441,683.6947791606477,None,683.6947791606477,None,None,0.007987505420715024,None,,NENA_029,001,2021_Jan_29_1335,test7,3.2.4,99.96479561939744,
170,81,Guldet är redan vägt och transporteras nu till banken. ,4,,0,,cor,1,no,173,199,,,,,,,,,,,,,0,6,6,6,,,,,,,,,,,,,,,,,,,,,,,,,,,,,,,,,,,,,,,,,,,,,,,,,,,,,,,,,,,,,,,,,,,,,,,,,,,,,,,,,,,,,,,,,,,,,689.6952100049011,None,690.1959640545101,None,690.1959640545101,None,left,1,0.4374991981612766,690.1959640545101,None,,,,,,,,,,,,,690.6462096097548,None,,,,,,,,,,,,,,,,,,,,,,,,,,,,,,,,,683.704776267612,None,683.704776267612,None,684.204891732461,None,689.205802942558,689.205802942558,0.009879525260657829,None,689.205802942558,689.205802942558,692.1463448639958,None,692.1463448639958,None,None,0.008193096998184046,None,,NENA_029,001,2021_Jan_29_1335,test7,3.2.4,99.96479561939744,
150,65,Poeten skrev verk men allmänheten inte fick se dem.  ,6,,7,,inc,1,no,157,158,,,,,,,,,,,,,0,7,7,7,,,,,,,,,,,,,,,,,,,,,,,,,,,,,,,,,,,,,,,,,,,,,,,,,,,,,,,,,,,,,,,,,,,,,,,,,,,,,,,,,,,,,,,,,,,,,698.1467555019008,None,698.6475393799283,None,698.6475393799283,None,right,1,0.3458470501300326,698.6475393799283,None,,,,,,,,,,,,,699.0075016870696,None,,,,,,,,,,,,,,,,,,,,,,,,,,,,,,,,,692.1563256134395,None,692.1563256134395,None,692.6564147779618,None,697.6573356101298,697.6573356101298,0.009883694823656697,None,697.6573356101298,697.6573356101298,700.5078534379023,None,700.5078534379023,None,None,0.008349936751073983,None,,NENA_029,001,2021_Jan_29_1335,test7,3.2.4,99.96479561939744,
150,16,Forskaren gav en föreläsning som studenterna inte kunde följa.  ,6,,7,,cor,1,no,151,152,,,,,,,,,,,,,0,8,8,8,,,,,,,,,,,,,,,,,,,,,,,,,,,,,,,,,,,,,,,,,,,,,,,,,,,,,,,,,,,,,,,,,,,,,,,,,,,,,,,,,,,,,,,,,,,,,706.5082608684497,None,707.009048595306,None,707.009048595306,None,left,1,0.3681673675810089,707.009048595306,None,,,,,,,,,,,,,707.3888480841815,None,,,,,,,,,,,,,,,,,,,,,,,,,,,,,,,,,700.5178678645934,None,700.5178678645934,None,701.0179531802869,None,706.018892615125,706.018892615125,0.009883694824566192,None,706.018892615125,706.018892615125,708.8893958045206,None,708.8893958045206,None,None,0.007577284472063184,None,,NENA_029,001,2021_Jan_29_1335,test7,3.2.4,99.96479561939744,
130,69,Smeder hamrar ofta järn som har hög temperatur.,3,,4,,cor,1,no,137,138,,,,,,,,,,,,,0,9,9,9,,,,,,,,,,,,,,,,,,,,,,,,,,,,,,,,,,,,,,,,,,,,,,,,,,,,,,,,,,,,,,,,,,,,,,,,,,,,,,,,,,,,,,,,,,,,,714.3897002789117,None,714.8904283489301,None,714.8904283489301,None,left,1,2.9586074554372317,714.8904283489301,None,,,,,,,,,,,,,717.8613693746174,None,,,,,,,,,,,,,,,,,,,,,,,,,,,,,,,,,708.8993897041282,None,708.8993897041282,None,709.3994910566062,None,713.9003002727541,713.9003002727541,0.009882411881335429,None,713.9003002727541,713.9003002727541,719.361308338615,None,719.361308338615,None,None,0.008062878308010113,None,,NENA_029,001,2021_Jan_29_1335,test7,3.2.4,99.96479561939744,
150,116,Kanalen visade filmer som familjen hade inte sett.  ,6,,7,,inc,1,no,153,154,,,,,,,,,,,,,0,10,10,10,,,,,,,,,,,,,,,,,,,,,,,,,,,,,,,,,,,,,,,,,,,,,,,,,,,,,,,,,,,,,,,,,,,,,,,,,,,,,,,,,,,,,,,,,,,,,724.8615990213711,None,725.362389634849,None,725.362389634849,None,right,1,0.3104487348900875,725.362389634849,None,,,,,,,,,,,,,725.6822952615794,None,,,,,,,,,,,,,,,,,,,,,,,,,,,,,,,,,719.3713054455793,None,719.3713054455793,None,719.8713468204833,None,724.3722272399546,724.3722272399546,0.009880166730908968,None,724.3722272399546,724.3722272399546,727.1827134046995,None,727.1827134046995,None,None,0.008136968252983934,None,,NENA_029,001,2021_Jan_29_1335,test7,3.2.4,99.96479561939744,
160,57,Den första månlandningen omfattade tre förväntansfulla astronauter som de hårt arbetande kollegorna i kontrollrummet skulle inte släppa ur sikte en sekund.,15,,16,,inc,1,no,163,164,,,,,,,,,,,,,0,11,11,11,,,,,,,,,,,,,,,,,,,,,,,,,,,,,,,,,,,,,,,,,,,,,,,,,,,,,,,,,,,,,,,,,,,,,,,,,,,,,,,,,,,,,,,,,,,,,739.1742463994215,None,739.6750232212644,None,739.6750232212644,None,left,0,3.533561461938916,739.6750232212644,None,,,,,,,,,,,,,743.2253351046502,None,,,,,,,,,,,,,,,,,,,,,,,,,,,,,,,,,727.1927422644967,None,727.1927422644967,None,727.6927708099738,None,738.6848345260432,738.6848345260432,0.009866054361737042,None,738.6848345260432,738.6848345260432,744.7259447269777,None,744.7259447269777,None,None,0.007678636950913642,None,,NENA_029,001,2021_Jan_29_1335,test7,3.2.4,99.96479561939744,
130,51,Snickare tillverkar ofta möbler från gammalt trä.,3,,4,,cor,1,no,135,136,,,,,,,,,,,,,0,12,12,12,,,,,,,,,,,,,,,,,,,,,,,,,,,,,,,,,,,,,,,,,,,,,,,,,,,,,,,,,,,,,,,,,,,,,,,,,,,,,,,,,,,,,,,,,,,,,749.7261494525683,None,750.2269602723945,None,750.2269602723945,None,left,1,0.46158227896830795,750.2269602723945,None,,,,,,,,,,,,,750.7067035683776,None,,,,,,,,,,,,,,,,,,,,,,,,,,,,,,,,,744.7359344570204,None,744.7359344570204,None,745.2360261874283,None,749.2367571440673,749.2367571440673,0.00988465703176189,None,749.2367571440673,749.2367571440673,752.2073013234846,None,752.2073013234846,None,None,0.007725143625975761,None,,NENA_029,001,2021_Jan_29_1335,test7,3.2.4,99.96479561939744,
180,59,Bankrånet som genomfördes under onsdagen på ett växlingskontor i centrala Norrköping var ganska välplanerad och rånarna lyckades fly. ,14,,0,,inc,1,no,182,199,,,,,,,,,,,,,0,13,13,13,,,,,,,,,,,,,,,,,,,,,,,,,,,,,,,,,,,,,,,,,,,,,,,,,,,,,,,,,,,,,,,,,,,,,,,,,,,,,,,,,,,,,,,,,,,,,762.7085259885716,None,763.2092996030578,None,763.2092996030578,None,right,1,0.9109605649055084,763.2092996030578,None,,,,,,,,,,,,,764.13916529178,None,,,,,,,,,,,,,,,,,,,,,,,,,,,,,,,,,752.2173208819468,None,752.2173208819468,None,752.7173972170413,None,762.2191272653563,762.2191272653563,0.009880487467853527,None,762.2191272653563,762.2191272653563,765.6397765177859,None,765.6397765177859,None,None,0.007640790139703313,None,,NENA_029,001,2021_Jan_29_1335,test7,3.2.4,99.96479561939744,
160,12,Kyparen på restaurangen öppnade en flaska rött vin som det unga paret vid bordet nära entrédörren ville inte dricka upp.,17,,18,,inc,1,no,163,164,,,,,,,,,,,,,0,14,14,14,,,,,,,,,,,,,,,,,,,,,,,,,,,,,,,,,,,,,,,,,,,,,,,,,,,,,,,,,,,,,,,,,,,,,,,,,,,,,,,,,,,,,,,,,,,,,777.1411583433619,None,777.6417561946892,None,777.6417561946892,None,right,1,1.8063625621907704,777.6417561946892,None,,,,,,,,,,,,,779.4621926389882,None,,,,,,,,,,,,,,,,,,,,,,,,,,,,,,,,,765.6497091568763,None,765.6497091568763,None,766.1498336023242,None,776.6517641104465,776.6517641104465,0.009881449675049225,None,776.6517641104465,776.6517641104465,780.9625652376395,None,780.9625652376395,None,None,0.007955111115734326,None,,NENA_029,001,2021_Jan_29_1335,test7,3.2.4,99.96479561939744,
150,83,Sekreteraren skrev brev som brevbäraren inte hade tagit med sig. ,6,,7,,cor,1,no,151,152,,,,,,,,,,,,,0,15,15,15,,,,,,,,,,,,,,,,,,,,,,,,,,,,,,,,,,,,,,,,,,,,,,,,,,,,,,,,,,,,,,,,,,,,,,,,,,,,,,,,,,,,,,,,,,,,,787.4630233444268,None,787.9638360886674,None,787.9638360886674,None,right,0,0.9960491777619609,787.9638360886674,None,,,,,,,,,,,,,788.9737532362233,None,,,,,,,,,,,,,,,,,,,,,,,,,,,,,,,,,780.9725524017977,None,780.9725524017977,None,781.4726409248478,None,786.9736506008021,786.9736506008021,0.009877600845356937,None,786.9736506008021,786.9736506008021,790.4742829953635,None,790.4742829953635,None,None,0.008148835472638893,None,,NENA_029,001,2021_Jan_29_1335,test7,3.2.4,99.96479561939744,
160,34,Den nya medicinen mildrar de flesta typer av huvudvärk som många andra liknande substanser på marknaden inte kan klara av.,17,,18,,cor,1,no,161,162,,,,,,,,,,,,,0,16,16,16,,,,,,,,,,,,,,,,,,,,,,,,,,,,,,,,,,,,,,,,,,,,,,,,,,,,,,,,,,,,,,,,,,,,,,,,,,,,,,,,,,,,,,,,,,,,,801.9756831028744,None,802.476504506978,None,802.476504506978,None,left,1,1.3871241298447785,802.476504506978,None,,,,,,,,,,,,,803.876438820309,None,,,,,,,,,,,,,,,,,,,,,,,,,,,,,,,,,790.48429485617,None,790.48429485617,None,790.984299667205,None,801.4863042652714,801.4863042652714,0.009880166730908968,None,801.4863042652714,801.4863042652714,805.376958636643,None,805.376958636643,None,None,0.008226453510360443,None,,NENA_029,001,2021_Jan_29_1335,test7,3.2.4,99.96479561939744,
130,75,Turister besöker ofta städer som de läst om på bloggar.,3,,4,,cor,1,no,137,138,,,,,,,,,,,,,0,17,17,17,,,,,,,,,,,,,,,,,,,,,,,,,,,,,,,,,,,,,,,,,,,,,,,,,,,,,,,,,,,,,,,,,,,,,,,,,,,,,,,,,,,,,,,,,,,,,811.8775145678155,None,812.3782403926834,None,812.3782403926834,None,left,1,1.381288023216257,812.3782403926834,None,,,,,,,,,,,,,813.7782221748967,None,,,,,,,,,,,,,,,,,,,,,,,,,,,,,,,,,805.3869653656775,None,805.3869653656775,None,805.8869592716992,None,811.3881164860713,811.3881164860713,0.009883053352496063,None,811.3881164860713,811.3881164860713,815.278826023981,None,815.278826023981,None,None,0.0076353376325641875,None,,NENA_029,001,2021_Jan_29_1335,test7,3.2.4,99.96479561939744,
170,7,Lagen är väldigt viktig och stöds av många. ,4,,0,,cor,1,no,171,199,,,,,,,,,,,,,0,18,18,18,,,,,,,,,,,,,,,,,,,,,,,,,,,,,,,,,,,,,,,,,,,,,,,,,,,,,,,,,,,,,,,,,,,,,,,,,,,,,,,,,,,,,,,,,,,,,820.7791285739577,None,821.2799175837572,None,821.2799175837572,None,left,1,6.351290576272731,821.2799175837572,None,,,,,,,,,,,,,827.6409341491144,None,,,,,,,,,,,,,,,,,,,,,,,,,,,,,,,,,815.288775341327,None,815.288775341327,None,815.7889074844315,None,820.2897231152929,820.2897231152929,0.00988497776688746,None,820.2897231152929,820.2897231152929,829.1413481226706,None,829.1413481226706,None,None,0.0076427145540947095,None,,NENA_029,001,2021_Jan_29_1335,test7,3.2.4,99.96479561939744,
170,115,Kycklingen är perfekt tillagat idag.   ,4,,0,,inc,1,no,172,199,,,,,,,,,,,,,0,19,19,19,,,,,,,,,,,,,,,,,,,,,,,,,,,,,,,,,,,,,,,,,,,,,,,,,,,,,,,,,,,,,,,,,,,,,,,,,,,,,,,,,,,,,,,,,,,,,833.1313765462673,None,833.6321511229598,None,833.6321511229598,None,right,1,2.9909963076906934,833.6321511229598,None,,,,,,,,,,,,,836.6426744609716,None,,,,,,,,,,,,,,,,,,,,,,,,,,,,,,,,,829.1513506821411,None,829.1513506821411,None,829.6514594115397,None,832.6420111795633,832.6420111795633,0.009882732616460999,None,832.6420111795633,832.6420111795633,838.1429973455921,None,838.1429973455921,None,None,0.007922716811663122,None,,NENA_029,001,2021_Jan_29_1335,test7,3.2.4,99.96479561939744,
140,49,Modeller röker gärna cigaretter för att bli mindre hungrigt.,3,,4,,inc,1,no,135,136,,,,,,,,,,,,,0,20,20,20,,,,,,,,,,,,,,,,,,,,,,,,,,,,,,,,,,,,,,,,,,,,,,,,,,,,,,,,,,,,,,,,,,,,,,,,,,,,,,,,,,,,,,,,,,,,,844.1433736647778,None,844.6441838431319,None,844.6441838431319,None,right,1,1.4988389367999844,844.6441838431319,None,,,,,,,,,,,,,846.1545763209824,None,,,,,,,,,,,,,,,,,,,,,,,,,,,,,,,,,838.1530034331554,None,838.1530034331554,None,838.6529633411938,None,843.6540182408808,843.6540182408808,0.009880808202979097,None,843.6540182408808,843.6540182408808,847.6546634648699,None,847.6546634648699,None,None,0.008206888634049392,None,,NENA_029,001,2021_Jan_29_1335,test7,3.2.4,99.96479561939744,
150,40,Nätet sprider information som tidningar inte kan kontrollera.  ,6,,7,,cor,1,no,151,152,,,,,,,,,,,,,0,21,21,21,,,,,,,,,,,,,,,,,,,,,,,,,,,,,,,,,,,,,,,,,,,,,,,,,,,,,,,,,,,,,,,,,,,,,,,,,,,,,,,,,,,,,,,,,,,,,853.155046198769,None,853.6558204547264,None,853.6558204547264,None,left,1,2.182941543996094,853.6558204547264,None,,,,,,,,,,,,,855.8561843614416,None,,,,,,,,,,,,,,,,,,,,,,,,,,,,,,,,,847.6646522327055,None,847.6646522327055,None,848.1647628865185,None,852.6656407401042,852.6656407401042,0.009883374088531127,None,852.6656407401042,852.6656407401042,857.3565027557612,None,857.3565027557612,None,None,0.007636299838850391,None,,NENA_029,001,2021_Jan_29_1335,test7,3.2.4,99.96479561939744,
180,53,Solen som ju faktiskt är den närmaste stjärnan sett från jorden är ganska litet och det finns klart större.,14,,0,,inc,1,no,182,199,,,,,,,,,,,,,0,22,22,22,,,,,,,,,,,,,,,,,,,,,,,,,,,,,,,,,,,,,,,,,,,,,,,,,,,,,,,,,,,,,,,,,,,,,,,,,,,,,,,,,,,,,,,,,,,,,868.3578162646354,None,868.8585449761249,None,868.8585449761249,None,right,1,3.1640271188443876,868.8585449761249,None,,,,,,,,,,,,,872.0390826061193,None,,,,,,,,,,,,,,,,,,,,,,,,,,,,,,,,,857.3665133336244,None,857.3665133336244,None,857.8666008944683,None,867.8684419173323,867.8684419173323,0.009883374088531127,None,867.8684419173323,867.8684419173323,873.5394526388851,None,873.5394526388851,None,None,0.007932018145766051,None,,NENA_029,001,2021_Jan_29_1335,test7,3.2.4,99.96479561939744,
150,15,Snickaren använde trä som kunden ville inte köpa.  ,6,,7,,inc,1,no,153,154,,,,,,,,,,,,,0,23,23,23,,,,,,,,,,,,,,,,,,,,,,,,,,,,,,,,,,,,,,,,,,,,,,,,,,,,,,,,,,,,,,,,,,,,,,,,,,,,,,,,,,,,,,,,,,,,,879.0397753952111,None,879.5405589525035,None,879.5405589525035,None,right,1,28.017415627269656,879.5405589525035,None,,,,,,,,,,,,,907.5756086280471,None,,,,,,,,,,,,,,,,,,,,,,,,,,,,,,,,,873.5494551983566,None,873.5494551983566,None,874.0495158174017,None,878.5503692950742,878.5503692950742,0.009882411881335429,None,878.5503692950742,878.5503692950742,909.0758927036483,None,909.0758927036483,None,None,0.007936829181744542,None,,NENA_029,001,2021_Jan_29_1335,test7,3.2.4,99.96479561939744,
180,29,Rymddräkten som astronauten skulle ha på sig under den långa rymdfärden blev faktiskt färdigt i god tid. ,14,,0,,inc,1,no,182,199,,,,,,,,,,,,,0,24,24,24,,,,,,,,,,,,,,,,,,,,,,,,,,,,,,,,,,,,,,,,,,,,,,,,,,,,,,,,,,,,,,,,,,,,,,,,,,,,,,,,,,,,,,,,,,,,,919.0770689376468,None,919.5778521742031,None,919.5778521742031,None,right,1,3.7878872241990393,919.5778521742031,None,,,,,,,,,,,,,923.3782699003668,None,,,,,,,,,,,,,,,,,,,,,,,,,,,,,,,,,909.0859343928732,None,909.0859343928732,None,909.5859860313194,None,918.5876891378375,918.5876891378375,0.009878242317427066,None,918.5876891378375,918.5876891378375,924.8787659822598,None,924.8787659822598,None,None,0.007380352758445952,None,,NENA_029,001,2021_Jan_29_1335,test7,3.2.4,99.96479561939744,
170,76,Gitarren är redan stämd och mikrofonerna är på plats. ,4,,0,,cor,1,no,171,199,,,,,,,,,,,,,0,25,25,25,,,,,,,,,,,,,,,,,,,,,,,,,,,,,,,,,,,,,,,,,,,,,,,,,,,,,,,,,,,,,,,,,,,,,,,,,,,,,,,,,,,,,,,,,,,,,930.8792388428883,None,931.380019192824,None,931.380019192824,None,left,1,2.1456342099245376,931.380019192824,None,,,,,,,,,,,,,933.5402751014171,None,,,,,,,,,,,,,,,,,,,,,,,,,,,,,,,,,924.8888047848641,None,924.8888047848641,None,925.3889131935275,None,930.3898064424257,930.3898064424257,0.009883053352496063,None,930.3898064424257,930.3898064424257,935.0406849054094,None,935.0406849054094,None,None,0.00767414665187971,None,,NENA_029,001,2021_Jan_29_1335,test7,3.2.4,99.96479561939744,
150,90,Luftmadrassen har hål men pojken kan inte se dem utan förstoringsglas. ,6,,7,,cor,1,no,155,156,,,,,,,,,,,,,0,26,26,26,,,,,,,,,,,,,,,,,,,,,,,,,,,,,,,,,,,,,,,,,,,,,,,,,,,,,,,,,,,,,,,,,,,,,,,,,,,,,,,,,,,,,,,,,,,,,942.0412703442653,None,942.5420628821566,None,942.5420628821566,None,left,1,1.3354135181116362,942.5420628821566,None,,,,,,,,,,,,,943.8924804158787,None,,,,,,,,,,,,,,,,,,,,,,,,,,,,,,,,,935.0506916344439,None,935.0506916344439,None,935.5506329398122,None,941.5518802809138,941.5518802809138,0.009876638639980229,None,941.5518802809138,941.5518802809138,945.392547994889,None,945.392547994889,None,None,0.008114837490211357,None,,NENA_029,001,2021_Jan_29_1335,test7,3.2.4,99.96479561939744,
180,5,Blomman som grannen hade lämnat utan vatten i nästan en vecka var väldigt torrt vid kvinnans hemkomst. ,14,,0,,inc,1,no,182,199,,,,,,,,,,,,,0,27,27,27,,,,,,,,,,,,,,,,,,,,,,,,,,,,,,,,,,,,,,,,,,,,,,,,,,,,,,,,,,,,,,,,,,,,,,,,,,,,,,,,,,,,,,,,,,,,,955.3937155690237,None,955.8944991263161,None,955.8944991263161,None,right,1,1.758766027162892,955.8944991263161,None,,,,,,,,,,,,,957.6645415788926,None,,,,,,,,,,,,,,,,,,,,,,,,,,,,,,,,,945.4025723643872,None,945.4025723643872,None,945.9025008403278,None,954.9043181287516,954.9043181287516,0.009881128939014161,None,954.9043181287516,954.9043181287516,959.16507230024,None,959.16507230024,None,None,0.008076669942965964,None,,NENA_029,001,2021_Jan_29_1335,test7,3.2.4,99.96479561939744,
150,68,Kunden visade kvittot som säljaren hade inte utfärdat.  ,6,,7,,inc,1,no,153,154,,,,,,,,,,,,,0,28,28,28,,,,,,,,,,,,,,,,,,,,,,,,,,,,,,,,,,,,,,,,,,,,,,,,,,,,,,,,,,,,,,,,,,,,,,,,,,,,,,,,,,,,,,,,,,,,,964.6654001883362,None,965.1661721991441,None,965.1661721991441,None,right,1,1.4390082595855347,965.1661721991441,None,,,,,,,,,,,,,966.6163985102476,None,,,,,,,,,,,,,,,,,,,,,,,,,,,,,,,,,959.1750889720806,None,959.1750889720806,None,959.6751566473113,None,964.176006596892,964.176006596892,0.009880166731818463,None,964.176006596892,964.176006596892,968.116702471461,None,968.116702471461,None,None,0.008353144108696142,None,,NENA_029,001,2021_Jan_29_1335,test7,3.2.4,99.96479561939744,
180,38,Plånboken som hittades i den tomma tunnelbanevagnen sent i fredags kväll var alldeles full med sedlar.  ,14,,0,,cor,1,no,181,199,,,,,,,,,,,,,0,29,29,29,,,,,,,,,,,,,,,,,,,,,,,,,,,,,,,,,,,,,,,,,,,,,,,,,,,,,,,,,,,,,,,,,,,,,,,,,,,,,,,,,,,,,,,,,,,,,977.5977368248195,None,978.0984613667451,None,978.0984613667451,None,left,1,1.0184304349941158,978.0984613667451,None,,,,,,,,,,,,,979.128413910692,None,,,,,,,,,,,,,,,,,,,,,,,,,,,,,,,,,968.1267178603593,None,968.1267178603593,None,968.6267935539827,None,977.1083544591247,977.1083544591247,0.009884015560601256,None,977.1083544591247,977.1083544591247,980.6289783092867,None,980.6289783092867,None,None,0.008112592339784896,None,,NENA_029,001,2021_Jan_29_1335,test7,3.2.4,99.96479561939744,
180,17,Skjortan som reseledaren inför denna speciella dag hade strukit kvällen innan var otroligt skrynklig på morgonen.  ,14,,0,,cor,1,no,181,199,,,,,,,,,,,,,0,30,30,30,,,,,,,,,,,,,,,,,,,,,,,,,,,,,,,,,,,,,,,,,,,,,,,,,,,,,,,,,,,,,,,,,,,,,,,,,,,,,,,,,,,,,,,,,,,,,990.1300560774289,None,990.6308268052935,None,990.6308268052935,None,left,1,2.190054820143814,990.6308268052935,None,,,,,,,,,,,,,992.8314845059003,None,,,,,,,,,,,,,,,,,,,,,,,,,,,,,,,,,980.6390135837983,None,980.6390135837983,None,981.1390363560322,None,989.6406390722786,989.6406390722786,0.009876638639070734,None,989.6406390722786,989.6406390722786,994.3314545812606,None,994.3314545812606,None,None,0.008006428826774936,None,,NENA_029,001,2021_Jan_29_1335,test7,3.2.4,99.96479561939744,
160,23,Mannen med den vita bilen upptäckte en allvarlig balkongbrand som de nya hyresgästerna i lägenheten bredvid hade inte brytt sig om.,17,,18,,inc,1,no,163,164,,,,,,,,,,,,,0,31,31,31,,,,,,,,,,,,,,,,,,,,,,,,,,,,,,,,,,,,,,,,,,,,,,,,,,,,,,,,,,,,,,,,,,,,,,,,,,,,,,,,,,,,,,,,,,,,,1006.3329784927482,None,1006.8337982931735,None,1006.8337982931735,None,right,1,1.4025669118800579,1006.8337982931735,None,,,,,,,,,,,,,1008.2540403074963,None,,,,,,,,,,,,,,,,,,,,,,,,,,,,,,,,,994.3414789507588,None,994.3414789507588,None,994.8416024339995,None,1005.843621785908,1005.843621785908,0.009882411882244924,None,1005.843621785908,1005.843621785908,1009.7542368222536,None,1009.7542368222536,None,None,0.008190210377506446,None,,NENA_029,001,2021_Jan_29_1335,test7,3.2.4,99.96479561939744,
160,37,Den tuffa bostadsmarknaden ställde väldigt höga krav som många unga bostadssökande utan hjälp från föräldrar inte kunde klara av.,16,,17,,cor,1,no,161,162,,,,,,,,,,,,,0,32,32,32,,,,,,,,,,,,,,,,,,,,,,,,,,,,,,,,,,,,,,,,,,,,,,,,,,,,,,,,,,,,,,,,,,,,,,,,,,,,,,,,,,,,,,,,,,,,,1020.7556202515088,None,1021.2564400519341,None,1021.2564400519341,None,left,1,2.147793402595198,1021.2564400519341,None,,,,,,,,,,,,,1023.4167007715623,None,,,,,,,,,,,,,,,,,,,,,,,,,,,,,,,,,1009.7642701723507,None,1009.7642701723507,None,1010.2644064850192,None,1020.266246866413,1020.266246866413,0.009880166731818463,None,1020.266246866413,1020.266246866413,1024.9170874825845,None,1024.9170874825845,None,None,0.008516719310136978,None,,NENA_029,001,2021_Jan_29_1335,test7,3.2.4,99.96479561939744,
140,57,Pensionärer matar ibland fåglar med torr bröd.,3,,4,,inc,1,no,135,136,,,,,,,,,,,,,0,33,33,33,,,,,,,,,,,,,,,,,,,,,,,,,,,,,,,,,,,,,,,,,,,,,,,,,,,,,,,,,,,,,,,,,,,,,,,,,,,,,,,,,,,,,,,,,,,,,1029.917323640273,None,1030.4178964742168,None,1030.4178964742168,None,right,1,2.994088199749058,1030.4178964742168,None,,,,,,,,,,,,,1033.4285121841076,None,,,,,,,,,,,,,,,,,,,,,,,,,,,,,,,,,1024.9270826651345,None,1024.9270826651345,None,1025.4271144179675,None,1029.427907597331,1029.427907597331,0.009882732617370493,None,1029.427907597331,1029.427907597331,1034.9289152526503,None,1034.9289152526503,None,None,0.007848306129744742,None,,NENA_029,001,2021_Jan_29_1335,test7,3.2.4,99.96479561939744,
170,78,Slaget var mycket våldsamt och många skadades.  ,4,,0,,cor,1,no,173,199,,,,,,,,,,,,,0,34,34,34,,,,,,,,,,,,,,,,,,,,,,,,,,,,,,,,,,,,,,,,,,,,,,,,,,,,,,,,,,,,,,,,,,,,,,,,,,,,,,,,,,,,,,,,,,,,,1039.9294314125973,None,1040.4299237418827,None,1040.4299237418827,None,left,1,0.5660321017940078,1040.4299237418827,None,,,,,,,,,,,,,1041.0099893130873,None,,,,,,,,,,,,,,,,,,,,,,,,,,,,,,,,,1034.9389290378704,None,1034.9389290378704,None,1035.4390005619289,None,1039.4396757105578,1039.4396757105578,0.009881770410174795,None,1039.4396757105578,1039.4396757105578,1042.510290066944,None,1042.510290066944,None,None,0.007878455286117969,None,,NENA_029,001,2021_Jan_29_1335,test7,3.2.4,99.96479561939744,
140,44,Piloter flyger ofta flygplan i dålig väder.,3,,4,,inc,1,no,135,136,,,,,,,,,,,,,0,35,35,35,,,,,,,,,,,,,,,,,,,,,,,,,,,,,,,,,,,,,,,,,,,,,,,,,,,,,,,,,,,,,,,,,,,,,,,,,,,,,,,,,,,,,,,,,,,,,1047.510528469783,None,1048.0113036879475,None,1048.0113036879475,None,right,1,2.336505943873817,1048.0113036879475,None,,,,,,,,,,,,,1050.3618370072545,None,,,,,,,,,,,,,,,,,,,,,,,,,,,,,,,,,1042.5203073802568,None,1042.5203073802568,None,1043.0203702444524,None,1047.0211217281758,1047.0211217281758,0.009883374088531127,None,1047.0211217281758,1047.0211217281758,1051.861952055146,None,1051.861952055146,None,None,0.008166475934558548,None,,NENA_029,001,2021_Jan_29_1335,test7,3.2.4,99.96479561939744,
150,108,Fällan fångade djuret som jägaren ville inte ta hem.  ,6,,7,,inc,1,no,153,154,,,,,,,,,,,,,0,36,36,36,,,,,,,,,,,,,,,,,,,,,,,,,,,,,,,,,,,,,,,,,,,,,,,,,,,,,,,,,,,,,,,,,,,,,,,,,,,,,,,,,,,,,,,,,,,,,1057.8624566686085,None,1058.363199171732,None,1058.363199171732,None,right,1,1.848438273775173,1058.363199171732,None,,,,,,,,,,,,,1060.2231906658217,None,,,,,,,,,,,,,,,,,,,,,,,,,,,,,,,,,1051.871933125326,None,1051.871933125326,None,1052.3720825881574,None,1057.3730069484182,1057.3730069484182,0.009886581443424802,None,1057.3730069484182,1057.3730069484182,1061.7238063821273,None,1061.7238063821273,None,None,0.0076484877963594045,None,,NENA_029,001,2021_Jan_29_1335,test7,3.2.4,99.96479561939744,
180,48,Golvet som de små barnen skulle springa runt på i idrottshallen var fruktansvärt sliten efter alla år. ,14,,0,,inc,1,no,182,199,,,,,,,,,,,,,0,37,37,37,,,,,,,,,,,,,,,,,,,,,,,,,,,,,,,,,,,,,,,,,,,,,,,,,,,,,,,,,,,,,,,,,,,,,,,,,,,,,,,,,,,,,,,,,,,,,1071.7249585609488,None,1072.225741797506,None,1072.225741797506,None,right,1,1.9776716641563326,1072.225741797506,None,,,,,,,,,,,,,1074.2157835957814,None,,,,,,,,,,,,,,,,,,,,,,,,,,,,,,,,,1061.7338153563123,None,1061.7338153563123,None,1062.2339112562831,None,1071.235539631385,1071.235539631385,0.009882732616460999,None,1071.235539631385,1071.235539631385,1075.7163768605883,None,1075.7163768605883,None,None,0.007643676760380913,None,,NENA_029,001,2021_Jan_29_1335,test7,3.2.4,99.96479561939744,
170,8,Reformen är mycket kritiserat av miljöskäl.  ,4,,0,,inc,1,no,172,199,,,,,,,,,,,,,0,38,38,38,,,,,,,,,,,,,,,,,,,,,,,,,,,,,,,,,,,,,,,,,,,,,,,,,,,,,,,,,,,,,,,,,,,,,,,,,,,,,,,,,,,,,,,,,,,,,1080.2164876106217,None,1080.71727597895,None,1080.71727597895,None,right,1,2.5339245347413453,1080.71727597895,None,,,,,,,,,,,,,1083.2676128797193,None,,,,,,,,,,,,,,,,,,,,,,,,,,,,,,,,,1075.726365628424,None,1075.726365628424,None,1076.2264365110123,None,1079.7270853593145,1079.7270853593145,0.009881770408355806,None,1079.7270853593145,1079.7270853593145,1084.7680130616404,None,1084.7680130616404,None,None,0.007907321497441444,None,,NENA_029,001,2021_Jan_29_1335,test7,3.2.4,99.96479561939744,
170,1,Trädet är mycket gammalt och måste därför fällas snart. ,4,,0,,cor,1,no,173,199,,,,,,,,,,,,,0,39,39,39,,,,,,,,,,,,,,,,,,,,,,,,,,,,,,,,,,,,,,,,,,,,,,,,,,,,,,,,,,,,,,,,,,,,,,,,,,,,,,,,,,,,,,,,,,,,,1090.7687024188608,None,1091.2692085397803,None,1091.2692085397803,None,left,1,1.2379425831795743,1091.2692085397803,None,,,,,,,,,,,,,1092.5202589491673,None,,,,,,,,,,,,,,,,,,,,,,,,,,,,,,,,,1084.7780008672698,None,1084.7780008672698,None,1085.2779796987143,None,1090.279033315458,1090.279033315458,0.009879204524622764,None,1090.279033315458,1090.279033315458,1094.0196699822186,None,1094.0196699822186,None,None,0.008166796671503107,None,,NENA_029,001,2021_Jan_29_1335,test7,3.2.4,99.96479561939744,
140,71,Programmerare utvecklar gärna program för moderna mobiltelefon.,3,,4,,inc,1,no,137,138,,,,,,,,,,,,,0,40,40,40,,,,,,,,,,,,,,,,,,,,,,,,,,,,,,,,,,,,,,,,,,,,,,,,,,,,,,,,,,,,,,,,,,,,,,,,,,,,,,,,,,,,,,,,,,,,,1099.0199311572915,None,1099.5206800751293,None,1099.5206800751293,None,right,1,1.7383181646737285,1099.5206800751293,None,,,,,,,,,,,,,1101.2708984961346,None,,,,,,,,,,,,,,,,,,,,,,,,,,,,,,,,,1094.0296831259675,None,1094.0296831259675,None,1094.5297754978465,None,1098.5305401317328,1098.5305401317328,0.009883694823656697,None,1098.5305401317328,1098.5305401317328,1102.7713018854133,None,1102.7713018854133,None,None,0.008618071788987436,None,,NENA_029,001,2021_Jan_29_1335,test7,3.2.4,99.96479561939744,
170,74,Handfatet blev nyligen installerad i det nya huset. ,4,,0,,inc,1,no,174,199,,,,,,,,,,,,,0,41,41,41,,,,,,,,,,,,,,,,,,,,,,,,,,,,,,,,,,,,,,,,,,,,,,,,,,,,,,,,,,,,,,,,,,,,,,,,,,,,,,,,,,,,,,,,,,,,,1108.271607963483,None,1108.772389917097,None,1108.772389917097,None,left,0,4.174362185005521,1108.772389917097,None,,,,,,,,,,,,,1112.9628382799337,None,,,,,,,,,,,,,,,,,,,,,,,,,,,,,,,,,1102.7813025204696,None,1102.7813025204696,None,1103.2813916849918,None,1107.782225277052,1107.782225277052,0.009875355696749466,None,1107.782225277052,1107.782225277052,1114.4634418082828,None,1114.4634418082828,None,None,0.00813023280352354,None,,NENA_029,001,2021_Jan_29_1335,test7,3.2.4,99.96479561939744,
170,89,Seglet är för brett för den starka vinden. ,4,,0,,cor,1,no,173,199,,,,,,,,,,,,,0,42,42,42,,,,,,,,,,,,,,,,,,,,,,,,,,,,,,,,,,,,,,,,,,,,,,,,,,,,,,,,,,,,,,,,,,,,,,,,,,,,,,,,,,,,,,,,,,,,,1119.9637523766514,None,1120.4645259911376,None,1120.4645259911376,None,left,1,0.5703450346263708,1120.4645259911376,None,,,,,,,,,,,,,1121.0445938074918,None,,,,,,,,,,,,,,,,,,,,,,,,,,,,,,,,,1114.4734385945112,None,1114.4734385945112,None,1114.9735184576975,None,1119.4743433898948,1119.4743433898948,0.009881449673230236,None,1119.4743433898948,1119.4743433898948,1122.5449029004772,None,1122.5449029004772,None,None,0.008245697651545925,None,,NENA_029,001,2021_Jan_29_1335,test7,3.2.4,99.96479561939744,
130,74,Journalister tar ofta bilder av framstående människor.,3,,4,,cor,1,yes,137,138,,,,,,,,,,,,,0,43,43,43,,,,,,,,,,,,,,,,,,,,,,,,,,,,,,,,,,,,,,,,,,,,,,,,,,,,,,,,,,,,,,,,,,,,,,,,,,,,,,,,,,,,,,,,,,,,,1127.5451393789017,None,1128.0458870137973,None,1128.0458870137973,None,left,1,2.0366607309179017,1128.0458870137973,None,,,,,,,,,,,,,1130.0962332159015,None,,,,,,,,,,,,,,,,,,,,,,,,,,,,,,,,,1122.5548496519377,None,1122.5548496519377,None,1123.0550029635979,None,1127.0557406556863,1127.0557406556863,0.00987920452371327,None,1127.0557406556863,1127.0557406556863,1131.5975193660215,None,1131.5975193660215,None,space,0.0075522670877035125,None,74.852063870022,NENA_029,001,2021_Jan_29_1335,test7,3.2.4,99.96479561939744,
170,16,Båten är kraftigt skadat och måste bogseras.  ,4,,0,,inc,1,no,172,199,,,,,,,,,,,,,0,44,44,44,,,,,,,,,,,,,,,,,,,,,,,,,,,,,,,,,,,,,,,,,,,,,,,,,,,,,,,,,,,,,,,,,,,,,,,,,,,,,,,,,,,,,,,,,,,,,1211.4504540334437,None,1211.9512391944145,None,1211.9512391944145,None,right,1,2.050041182462337,1211.9512391944145,None,,,,,,,,,,,,,1214.011453792251,None,,,,,,,,,,,,,,,,,,,,,,,,,,,,,,,,,1206.460239037896,None,1206.460239037896,None,1206.9602797713287,None,1210.9610450466862,1210.9610450466862,0.009881128938104666,None,1210.9610450466862,1210.9610450466862,1215.511881557441,None,1215.511881557441,None,None,0.008623524294307572,None,,NENA_029,001,2021_Jan_29_1335,test7,3.2.4,99.96479561939744,
140,6,Slaktare säljer ofta kött från den omedelbar omgivning.,3,,4,,inc,1,no,131,132,,,,,,,,,,,,,0,45,45,45,,,,,,,,,,,,,,,,,,,,,,,,,,,,,,,,,,,,,,,,,,,,,,,,,,,,,,,,,,,,,,,,,,,,,,,,,,,,,,,,,,,,,,,,,,,,,1221.0121834659476,None,1221.5129731172174,None,1221.5129731172174,None,right,1,2.064054766260597,1221.5129731172174,None,,,,,,,,,,,,,1223.593067233899,None,,,,,,,,,,,,,,,,,,,,,,,,,,,,,,,,,1215.5218478737797,None,1215.5218478737797,None,1216.0218392139159,None,1220.5227953270096,1220.5227953270096,0.0098817704092653,None,1220.5227953270096,1220.5227953270096,1225.0936473485422,None,1225.0936473485422,None,None,0.007833873024537752,None,,NENA_029,001,2021_Jan_29_1335,test7,3.2.4,99.96479561939744,
170,54,Torget var alltid tomt på natten.  ,4,,0,,cor,1,no,173,199,,,,,,,,,,,,,0,46,46,46,,,,,,,,,,,,,,,,,,,,,,,,,,,,,,,,,,,,,,,,,,,,,,,,,,,,,,,,,,,,,,,,,,,,,,,,,,,,,,,,,,,,,,,,,,,,,1229.5937808708104,None,1230.0944563401754,None,1230.0944563401754,None,left,1,1.3146933510206509,1230.0944563401754,None,,,,,,,,,,,,,1231.4247095417586,None,,,,,,,,,,,,,,,,,,,,,,,,,,,,,,,,,1225.1036357956427,None,1225.1036357956427,None,1225.6037323370856,None,1229.10435424359,1229.10435424359,0.009882091145300365,None,1229.10435424359,1229.10435424359,1232.925074442754,None,1232.925074442754,None,None,0.007953507437377993,None,,NENA_029,001,2021_Jan_29_1335,test7,3.2.4,99.96479561939744,
180,52,Pappret som nu satt i den gula skrivmaskinen framför den trötta författaren var helt blankt och idéerna var slut. ,15,,0,,cor,1,no,181,199,,,,,,,,,,,,,0,47,47,47,,,,,,,,,,,,,,,,,,,,,,,,,,,,,,,,,,,,,,,,,,,,,,,,,,,,,,,,,,,,,,,,,,,,,,,,,,,,,,,,,,,,,,,,,,,,,1243.9263847442717,None,1244.4271692637703,None,1244.4271692637703,None,left,1,1.4455836619799811,1244.4271692637703,None,,,,,,,,,,,,,1245.8877880527243,None,,,,,,,,,,,,,,,,,,,,,,,,,,,,,,,,,1232.9350731533968,None,1232.9350731533968,None,1233.4350798888463,None,1243.436974474571,1243.436974474571,0.009878242317427066,None,1243.436974474571,1243.436974474571,1247.3876971883033,None,1247.3876971883033,None,None,0.007974355257829302,None,,NENA_029,001,2021_Jan_29_1335,test7,3.2.4,99.96479561939744,
170,32,Champagnen är redan kylt och gäster förväntas.  ,4,,0,,inc,1,no,172,199,,,,,,,,,,,,,0,48,48,48,,,,,,,,,,,,,,,,,,,,,,,,,,,,,,,,,,,,,,,,,,,,,,,,,,,,,,,,,,,,,,,,,,,,,,,,,,,,,,,,,,,,,,,,,,,,,1252.3979005283163,None,1252.8987068578426,None,1252.8987068578426,None,right,1,1.7900056834369025,1252.8987068578426,None,,,,,,,,,,,,,1254.6987419463276,None,,,,,,,,,,,,,,,,,,,,,,,,,,,,,,,,,1247.3976962196812,None,1247.3976962196812,None,1247.89775138622,None,1251.9085383689699,1251.9085383689699,0.009880808202069602,None,1251.9085383689699,1251.9085383689699,1256.1992668944317,None,1256.1992668944317,None,None,0.008199832446734945,None,,NENA_029,001,2021_Jan_29_1335,test7,3.2.4,99.96479561939744,
150,46,Ingripanden kräver resurser men polisen inte hade haft tillgång till dem. ,6,,7,,inc,1,no,157,158,,,,,,,,,,,,,0,49,49,49,,,,,,,,,,,,,,,,,,,,,,,,,,,,,,,,,,,,,,,,,,,,,,,,,,,,,,,,,,,,,,,,,,,,,,,,,,,,,,,,,,,,,,,,,,,,,1263.1998882556854,None,1263.7006506444222,None,1263.7006506444222,None,right,1,2.3477634458813554,1263.7006506444222,None,,,,,,,,,,,,,1266.0607973745864,None,,,,,,,,,,,,,,,,,,,,,,,,,,,,,,,,,1256.2092713783168,None,1256.2092713783168,None,1256.7092559830035,None,1262.7105161535328,1262.7105161535328,0.00988209114439087,None,1262.7105161535328,1262.7105161535328,1267.5613316240265,None,1267.5613316240265,None,None,0.00780308239882288,None,,NENA_029,001,2021_Jan_29_1335,test7,3.2.4,99.96479561939744,
150,82,Kocken behövde grönsaker men lärlingen hade inte hämtat dem i tid. ,6,,7,,cor,1,no,155,156,,,,,,,,,,,,,0,50,50,50,,,,,,,,,,,,,,,,,,,,,,,,,,,,,,,,,,,,,,,,,,,,,,,,,,,,,,,,,,,,,,,,,,,,,,,,,,,,,,,,,,,,,,,,,,,,,1274.5619449668875,None,1275.0627394291932,None,1275.0627394291932,None,left,1,3.305644114243478,1275.0627394291932,None,,,,,,,,,,,,,1278.3832175691314,None,,,,,,,,,,,,,,,,,,,,,,,,,,,,,,,,,1267.5713450885105,None,1267.5713450885105,None,1268.0714846085357,None,1274.0725715817916,1274.0725715817916,0.009880166730908968,None,1274.0725715817916,1274.0725715817916,1279.883574130999,None,1279.883574130999,None,None,0.008749252686357067,None,,NENA_029,001,2021_Jan_29_1335,test7,3.2.4,99.96479561939744,
160,17,Kvinnan i den lilla kiosken sa några ord på franska som den mycket påstridiga turisten från Sverige kunde inte förstå.,18,,19,,inc,1,no,163,164,,,,,,,,,,,,,0,51,51,51,,,,,,,,,,,,,,,,,,,,,,,,,,,,,,,,,,,,,,,,,,,,,,,,,,,,,,,,,,,,,,,,,,,,,,,,,,,,,,,,,,,,,,,,,,,,,1291.3750356016617,None,1291.875818517483,None,1291.875818517483,None,right,1,2.5161095915373153,1291.875818517483,None,,,,,,,,,,,,,1294.4060013496564,None,,,,,,,,,,,,,,,,,,,,,,,,,,,,,,,,,1279.8936283289158,None,1279.8936283289158,None,1280.393726794773,None,1290.885653877438,1290.885653877438,0.00988144967413973,None,1290.885653877438,1290.885653877438,1295.9065554847089,None,1295.9065554847089,None,None,0.007862418500735657,None,,NENA_029,001,2021_Jan_29_1335,test7,3.2.4,99.96479561939744,
180,10,Boken som de rekommenderade alla blivande studenter på programmet att läsa var förvånansvärt roligt efter den sega inledningen. ,14,,0,,inc,1,no,182,199,,,,,,,,,,,,,0,52,52,52,,,,,,,,,,,,,,,,,,,,,,,,,,,,,,,,,,,,,,,,,,,,,,,,,,,,,,,,,,,,,,,,,,,,,,,,,,,,,,,,,,,,,,,,,,,,,1306.4077769424403,None,1306.9085508776616,None,1306.9085508776616,None,right,1,2.787135099004445,1306.9085508776616,None,,,,,,,,,,,,,1309.7088117640724,None,,,,,,,,,,,,,,,,,,,,,,,,,,,,,,,,,1295.9165612515362,None,1295.9165612515362,None,1296.416601984969,None,1305.9183730874538,1305.9183730874538,0.009876959373286809,None,1305.9183730874538,1305.9183730874538,1311.2093309389352,None,1311.2093309389352,None,None,0.008006428826774936,None,,NENA_029,001,2021_Jan_29_1335,test7,3.2.4,99.96479561939744,
150,6,Systern köpte godis men syskonen inte fick smaka på det. ,6,,7,,inc,1,no,157,158,,,,,,,,,,,,,0,53,53,53,,,,,,,,,,,,,,,,,,,,,,,,,,,,,,,,,,,,,,,,,,,,,,,,,,,,,,,,,,,,,,,,,,,,,,,,,,,,,,,,,,,,,,,,,,,,,1317.7098288169473,None,1318.210604676583,None,1318.210604676583,None,right,1,4.948918350956774,1318.210604676583,None,,,,,,,,,,,,,1323.1719197827215,None,,,,,,,,,,,,,,,,,,,,,,,,,,,,,,,,,1311.2193966833365,None,1311.2193966833365,None,1311.719269351268,None,1317.2204551111163,1317.2204551111163,0.009882732615551504,None,1317.2204551111163,1317.2204551111163,1324.6717920336955,None,1324.6717920336955,None,None,0.00794099874474341,None,,NENA_029,001,2021_Jan_29_1335,test7,3.2.4,99.96479561939744,
180,12,Benet som han inte hade velat röra på under hela helgen kändes otroligt ömt efter den långa promenaden. ,14,,0,,cor,1,no,181,199,,,,,,,,,,,,,0,54,54,54,,,,,,,,,,,,,,,,,,,,,,,,,,,,,,,,,,,,,,,,,,,,,,,,,,,,,,,,,,,,,,,,,,,,,,,,,,,,,,,,,,,,,,,,,,,,,1335.1730224720259,None,1335.6738255941955,None,1335.6738255941955,None,left,1,1.2774726155867029,1335.6738255941955,None,,,,,,,,,,,,,1336.9639114615547,None,,,,,,,,,,,,,,,,,,,,,,,,,,,,,,,,,1324.681825704528,None,1324.681825704528,None,1325.1818561744194,None,1334.683583656849,1334.683583656849,0.009880166729999473,None,1334.683583656849,1334.683583656849,1338.4642853431492,None,1338.4642853431492,None,None,0.007867871008784277,None,,NENA_029,001,2021_Jan_29_1335,test7,3.2.4,99.96479561939744,
150,20,Klättraren gav signaler som partnern kunde inte se.  ,6,,7,,inc,1,no,153,154,,,,,,,,,,,,,0,55,55,55,,,,,,,,,,,,,,,,,,,,,,,,,,,,,,,,,,,,,,,,,,,,,,,,,,,,,,,,,,,,,,,,,,,,,,,,,,,,,,,,,,,,,,,,,,,,,1343.9646196459598,None,1344.465438804914,None,1344.465438804914,None,right,1,2.6859221407703444,1344.465438804914,None,,,,,,,,,,,,,1347.165880650401,None,,,,,,,,,,,,,,,,,,,,,,,,,,,,,,,,,1338.4743225420743,None,1338.4743225420743,None,1338.974372256106,None,1343.4752404876208,1343.4752404876208,0.009884336295726825,None,1343.4752404876208,1343.4752404876208,1348.666178517637,None,1348.666178517637,None,None,0.008357313670785516,None,,NENA_029,001,2021_Jan_29_1335,test7,3.2.4,99.96479561939744,
140,78,Poliser kontrollerar ofta bilar som köra för fort.,3,,4,,inc,1,no,137,138,,,,,,,,,,,,,0,56,56,56,,,,,,,,,,,,,,,,,,,,,,,,,,,,,,,,,,,,,,,,,,,,,,,,,,,,,,,,,,,,,,,,,,,,,,,,,,,,,,,,,,,,,,,,,,,,,1354.166508971619,None,1354.667249229593,None,1354.667249229593,None,right,1,1.1557043484053793,1354.667249229593,None,,,,,,,,,,,,,1355.8373642325823,None,,,,,,,,,,,,,,,,,,,,,,,,,,,,,,,,,1348.6761836429932,None,1348.6761836429932,None,1349.1762465071888,None,1353.6770884383768,1353.6770884383768,0.00988209114439087,None,1353.6770884383768,1353.6770884383768,1357.3377586412612,None,1357.3377586412612,None,None,0.0075827369782928145,None,,NENA_029,001,2021_Jan_29_1335,test7,3.2.4,99.96479561939744,
170,98,Tornet var ganska hög men det fanns några högre. ,4,,0,,inc,1,no,174,199,,,,,,,,,,,,,0,57,57,57,,,,,,,,,,,,,,,,,,,,,,,,,,,,,,,,,,,,,,,,,,,,,,,,,,,,,,,,,,,,,,,,,,,,,,,,,,,,,,,,,,,,,,,,,,,,,1363.3381695999014,None,1363.8389595719082,None,1363.8389595719082,None,left,0,1.7678781281347256,1363.8389595719082,None,,,,,,,,,,,,,1365.619634412631,None,,,,,,,,,,,,,,,,,,,,,,,,,,,,,,,,,1357.3477935950368,None,1357.3477935950368,None,1357.8478606287963,None,1362.848775366986,1362.848775366986,0.009881449673230236,None,1362.848775366986,1362.848775366986,1367.1195057013979,None,1367.1195057013979,None,None,0.007925924167466292,None,,NENA_029,001,2021_Jan_29_1335,test7,3.2.4,99.96479561939744,
130,66,Barn äter ofta mat med för mycket socker.,3,,4,,cor,1,no,137,138,,,,,,,,,,,,,0,58,58,58,,,,,,,,,,,,,,,,,,,,,,,,,,,,,,,,,,,,,,,,,,,,,,,,,,,,,,,,,,,,,,,,,,,,,,,,,,,,,,,,,,,,,,,,,,,,,1372.6198505884859,None,1373.120670068176,None,1373.120670068176,None,left,1,1.502035067957877,1373.120670068176,None,,,,,,,,,,,,,1374.640668900698,None,,,,,,,,,,,,,,,,,,,,,,,,,,,,,,,,,1367.1295483528302,None,1367.1295483528302,None,1367.6296519504585,None,1372.1304797692756,1372.1304797692756,0.009885298502013029,None,1372.1304797692756,1372.1304797692756,1376.141137720057,None,1376.141137720057,None,None,0.008187003018974792,None,,NENA_029,001,2021_Jan_29_1335,test7,3.2.4,99.96479561939744,
170,92,Lektionen var för anspråksfull för de flesta.  ,4,,0,,cor,1,no,171,199,,,,,,,,,,,,,0,59,59,59,,,,,,,,,,,,,,,,,,,,,,,,,,,,,,,,,,,,,,,,,,,,,,,,,,,,,,,,,,,,,,,,,,,,,,,,,,,,,,,,,,,,,,,,,,,,,1381.1414312894349,None,1381.642157755774,None,1381.642157755774,None,left,1,3.8283076188836276,1381.642157755774,None,,,,,,,,,,,,,1385.4827703994315,None,,,,,,,,,,,,,,,,,,,,,,,,,,,,,,,,,1376.1511540711626,None,1376.1511540711626,None,1376.6512958363382,None,1380.6520367357834,1380.6520367357834,0.00988209114439087,None,1380.6520367357834,1380.6520367357834,1386.9831882218164,None,1386.9831882218164,None,None,0.00780051651327085,None,,NENA_029,001,2021_Jan_29_1335,test7,3.2.4,99.96479561939744,
140,31,Arbetsgivare sänker ibland lönen utan att informerar facket.,3,,4,,inc,1,no,133,134,,,,,,,,,,,,,0,60,60,60,,,,,,,,,,,,,,,,,,,,,,,,,,,,,,,,,,,,,,,,,,,,,,,,,,,,,,,,,,,,,,,,,,,,,,,,,,,,,,,,,,,,,,,,,,,,,1392.483503921956,None,1392.9842727254072,None,1392.9842727254072,None,right,1,2.8380913403934755,1392.9842727254072,None,,,,,,,,,,,,,1395.8345003836002,None,,,,,,,,,,,,,,,,,,,,,,,,,,,,,,,,,1386.9931898190798,None,1386.9931898190798,None,1387.49324562709,None,1391.994096859613,1391.994096859613,0.009884015559691761,None,1391.994096859613,1391.994096859613,1397.3350256524404,None,1397.3350256524404,None,None,0.008207209367355972,None,,NENA_029,001,2021_Jan_29_1335,test7,3.2.4,99.96479561939744,
150,98,Arrangörerna genomförde tävlingen men idrottarna ville inte delta i den.  ,6,,7,,cor,1,no,155,156,,,,,,,,,,,,,0,61,61,61,,,,,,,,,,,,,,,,,,,,,,,,,,,,,,,,,,,,,,,,,,,,,,,,,,,,,,,,,,,,,,,,,,,,,,,,,,,,,,,,,,,,,,,,,,,,,1403.8355847909706,None,1404.3362926546397,None,1404.3362926546397,None,left,1,1.8059363044576457,1404.3362926546397,None,,,,,,,,,,,,,1406.1564458893235,None,,,,,,,,,,,,,,,,,,,,,,,,,,,,,,,,,1397.3450634928377,None,1397.3450634928377,None,1397.84514367676,None,1403.3461690687636,1403.3461690687636,0.009880808202979097,None,1403.3461690687636,1403.3461690687636,1407.6569657056575,None,1407.6569657056575,None,None,0.0077171252323751105,None,,NENA_029,001,2021_Jan_29_1335,test7,3.2.4,99.96479561939744,
160,3,De nya grannarna spelar hitlåtar från 90-talet som de yngre hyresgästerna på våningen ovan inte har hört förut.,15,,16,,cor,1,no,161,162,,,,,,,,,,,,,0,62,62,62,,,,,,,,,,,,,,,,,,,,,,,,,,,,,,,,,,,,,,,,,,,,,,,,,,,,,,,,,,,,,,,,,,,,,,,,,,,,,,,,,,,,,,,,,,,,,1418.168179683832,None,1418.6689667692171,None,1418.6689667692171,None,left,1,3.8089569931926235,1418.6689667692171,None,,,,,,,,,,,,,1422.4899721986303,None,,,,,,,,,,,,,,,,,,,,,,,,,,,,,,,,,1407.6669554357004,None,1407.6669554357004,None,1408.167023431667,None,1417.678795714458,1417.678795714458,0.009873752017483639,None,1417.678795714458,1417.678795714458,1423.9898771646453,None,1423.9898771646453,None,None,0.007971789370458282,None,,NENA_029,001,2021_Jan_29_1335,test7,3.2.4,99.96479561939744,
160,39,Målaren på marken berättade en rolig historia som kollegan på den övre balkongen kunde inte höra.,14,,15,,inc,1,no,163,164,,,,,,,,,,,,,0,63,63,63,,,,,,,,,,,,,,,,,,,,,,,,,,,,,,,,,,,,,,,,,,,,,,,,,,,,,,,,,,,,,,,,,,,,,,,,,,,,,,,,,,,,,,,,,,,,,1433.4909770635495,None,1433.9917676770274,None,1433.9917676770274,None,right,1,3.0699710568114824,1433.9917676770274,None,,,,,,,,,,,,,1437.0720497448228,None,,,,,,,,,,,,,,,,,,,,,,,,,,,,,,,,,1423.9999137220993,None,1423.9999137220993,None,1424.5000452237327,None,1433.0015786610702,1433.0015786610702,0.009878883789497195,None,1433.0015786610702,1433.0015786610702,1438.5726096531184,None,1438.5726096531184,None,None,0.008126383974740747,None,,NENA_029,001,2021_Jan_29_1335,test7,3.2.4,99.96479561939744,
170,106,Släpet är nu lastad så vi kan åka. ,4,,0,,inc,1,no,174,199,,,,,,,,,,,,,0,64,64,64,,,,,,,,,,,,,,,,,,,,,,,,,,,,,,,,,,,,,,,,,,,,,,,,,,,,,,,,,,,,,,,,,,,,,,,,,,,,,,,,,,,,,,,,,,,,,1444.072929202087,None,1444.5737057031938,None,1444.5737057031938,None,right,1,2.6318451411116257,1444.5737057031938,None,,,,,,,,,,,,,1447.2241278555102,None,,,,,,,,,,,,,,,,,,,,,,,,,,,,,,,,,1438.5826086844963,None,1438.5826086844963,None,1439.082561215614,None,1443.5835202153294,1443.5835202153294,0.009878883787678205,None,1443.5835202153294,1443.5835202153294,1448.724443683945,None,1448.724443683945,None,None,0.008764647998759756,None,,NENA_029,001,2021_Jan_29_1335,test7,3.2.4,99.96479561939744,
170,40,Spenaten är för beskt för barnen.  ,4,,0,,inc,1,no,172,199,,,,,,,,,,,,,0,65,65,65,,,,,,,,,,,,,,,,,,,,,,,,,,,,,,,,,,,,,,,,,,,,,,,,,,,,,,,,,,,,,,,,,,,,,,,,,,,,,,,,,,,,,,,,,,,,,1453.224589394169,None,1453.7253078421163,None,1453.7253078421163,None,right,1,2.048085656956573,1453.7253078421163,None,,,,,,,,,,,,,1455.785615774038,None,,,,,,,,,,,,,,,,,,,,,,,,,,,,,,,,,1448.734470619328,None,1448.734470619328,None,1449.2345469544225,None,1452.7352092736237,1452.7352092736237,0.009882732616460999,None,1452.7352092736237,1452.7352092736237,1457.2860281439157,None,1457.2860281439157,None,None,0.007789290762957535,None,,NENA_029,001,2021_Jan_29_1335,test7,3.2.4,99.96479561939744,
170,53,Programmet är vanligtvis tråkig på lördagskvällen.  ,4,,0,,inc,1,no,174,199,,,,,,,,,,,,,0,66,66,66,,,,,,,,,,,,,,,,,,,,,,,,,,,,,,,,,,,,,,,,,,,,,,,,,,,,,,,,,,,,,,,,,,,,,,,,,,,,,,,,,,,,,,,,,,,,,1461.7861427427779,None,1462.2869397709692,None,1462.2869397709692,None,right,1,5.670331499580243,1462.2869397709692,None,,,,,,,,,,,,,1467.9678013440116,None,,,,,,,,,,,,,,,,,,,,,,,,,,,,,,,,,1457.2960188361658,None,1457.2960188361658,None,1457.7961099251024,None,1461.2967408122058,1461.2967408122058,0.009883694822747202,None,1461.2967408122058,1461.2967408122058,1469.4682236566946,None,1469.4682236566946,None,None,0.00863924034365482,None,,NENA_029,001,2021_Jan_29_1335,test7,3.2.4,99.96479561939744,
150,85,Kraftverket genererade elöverskott men konsumenterna hade inte behövt detta under sommaren. ,6,,7,,cor,1,no,155,156,,,,,,,,,,,,,0,67,67,67,,,,,,,,,,,,,,,,,,,,,,,,,,,,,,,,,,,,,,,,,,,,,,,,,,,,,,,,,,,,,,,,,,,,,,,,,,,,,,,,,,,,,,,,,,,,,1476.4688360373493,None,1476.9696186324345,None,1476.9696186324345,None,left,1,3.1074291366567195,1476.9696186324345,None,,,,,,,,,,,,,1480.089911515438,None,,,,,,,,,,,,,,,,,,,,,,,,,,,,,,,,,1469.4782380833867,None,1469.4782380833867,None,1469.9783333418864,None,1475.979423843235,1475.979423843235,0.009882411880425934,None,1475.979423843235,1475.979423843235,1481.5904117668947,None,1481.5904117668947,None,None,0.008180267571333388,None,,NENA_029,001,2021_Jan_29_1335,test7,3.2.4,99.96479561939744,
140,7,Kor ger ofta mjölk med hög fettinnehåll.,3,,4,,inc,1,no,131,132,,,,,,,,,,,,,0,68,68,68,,,,,,,,,,,,,,,,,,,,,,,,,,,,,,,,,,,,,,,,,,,,,,,,,,,,,,,,,,,,,,,,,,,,,,,,,,,,,,,,,,,,,,,,,,,,,1486.5906902616953,None,1487.0914760641372,None,1487.0914760641372,None,right,1,9.081393096228567,1487.0914760641372,None,,,,,,,,,,,,,1496.1829720138867,None,,,,,,,,,,,,,,,,,,,,,,,,,,,,,,,,,1481.6004040628231,None,1481.6004040628231,None,1482.1005429413772,None,1486.1012722943378,1486.1012722943378,0.009882732618279988,None,1486.1012722943378,1486.1012722943378,1497.6833840630284,None,1497.6833840630284,None,None,0.00865014535793307,None,,NENA_029,001,2021_Jan_29_1335,test7,3.2.4,99.96479561939744,
160,60,Bilden av det svarta hålet visar strålning på mycket korta våglängder som det mänskliga ögat med dess begränsningar kan inte uppfatta.,19,,20,,inc,1,no,163,164,,,,,,,,,,,,,0,69,69,69,,,,,,,,,,,,,,,,,,,,,,,,,,,,,,,,,,,,,,,,,,,,,,,,,,,,,,,,,,,,,,,,,,,,,,,,,,,,,,,,,,,,,,,,,,,,,1509.68488905111,None,1510.1856684388385,None,1510.1856684388385,None,right,1,2.418871831452634,1510.1856684388385,None,,,,,,,,,,,,,1512.6158519766304,None,,,,,,,,,,,,,,,,,,,,,,,,,,,,,,,,,1497.6933827736711,None,1497.6933827736711,None,1498.1934857298284,None,1509.1954957804019,1509.1954957804019,0.009881770410174795,None,1509.1954957804019,1509.1954957804019,1514.116397772555,None,1514.116397772555,None,None,0.0078553623152402,None,,NENA_029,001,2021_Jan_29_1335,test7,3.2.4,99.96479561939744,
150,17,Musikern fick ett pris men han inte ville acceptera det.  ,6,,7,,inc,1,no,157,158,,,,,,,,,,,,,0,70,70,70,,,,,,,,,,,,,,,,,,,,,,,,,,,,,,,,,,,,,,,,,,,,,,,,,,,,,,,,,,,,,,,,,,,,,,,,,,,,,,,,,,,,,,,,,,,,,1520.616867425827,None,1521.1176808115388,None,1521.1176808115388,None,right,1,2.1906042403825268,1521.1176808115388,None,,,,,,,,,,,,,1523.3180710185798,None,,,,,,,,,,,,,,,,,,,,,,,,,,,,,,,,,1514.126392634369,None,1514.126392634369,None,1514.6264773085913,None,1520.127493719995,1520.127493719995,0.009883374088531127,None,1520.127493719995,1520.127493719995,1524.8183085875057,None,1524.8183085875057,None,None,0.008318183917253918,None,,NENA_029,001,2021_Jan_29_1335,test7,3.2.4,99.96479561939744,
160,10,Lokalerna på Sveavägen inrymmer en hel del arbetsplatser som de undervisande lärarna på den inhysta skolan inte kan använda.,17,,18,,cor,1,no,161,162,,,,,,,,,,,,,0,71,71,71,,,,,,,,,,,,,,,,,,,,,,,,,,,,,,,,,,,,,,,,,,,,,,,,,,,,,,,,,,,,,,,,,,,,,,,,,,,,,,,,,,,,,,,,,,,,,1535.8096719130472,None,1536.3104516215117,None,1536.3104516215117,None,left,1,5.229699996664749,1536.3104516215117,None,,,,,,,,,,,,,1541.551113722613,None,,,,,,,,,,,,,,,,,,,,,,,,,,,,,,,,,1524.828342258339,None,1524.828342258339,None,1525.3284288569757,None,1535.3202751142462,1535.3202751142462,0.00987920452371327,None,1535.3202751142462,1535.3202751142462,1543.0516691406078,None,1543.0516691406078,None,None,0.007929772996249085,None,,NENA_029,001,2021_Jan_29_1335,test7,3.2.4,99.96479561939744,
180,28,Berget som de underbetalda gruvarbetarna hade fått i uppgift att spränga var fullkomligt ogenomträngligt och de gav därför upp.,14,,0,,cor,1,no,181,199,,,,,,,,,,,,,0,72,72,72,,,,,,,,,,,,,,,,,,,,,,,,,,,,,,,,,,,,,,,,,,,,,,,,,,,,,,,,,,,,,,,,,,,,,,,,,,,,,,,,,,,,,,,,,,,,,1554.0530018936242,None,1554.5537758288456,None,1554.5537758288456,None,left,1,2.3780104251927696,1554.5537758288456,None,,,,,,,,,,,,,1556.9439248169883,None,,,,,,,,,,,,,,,,,,,,,,,,,,,,,,,,,1543.0616768318505,None,1543.0616768318505,None,1543.561586705121,None,1553.563589699509,1553.563589699509,0.009882091143481375,None,1553.563589699509,1553.563589699509,1558.4444908192622,None,1558.4444908192622,None,None,0.008126704710775812,None,,NENA_029,001,2021_Jan_29_1335,test7,3.2.4,99.96479561939744,
150,119,Byborna byggde murar som fienden kunde inte riva.  ,6,,7,,inc,1,no,153,154,,,,,,,,,,,,,0,73,73,73,,,,,,,,,,,,,,,,,,,,,,,,,,,,,,,,,,,,,,,,,,,,,,,,,,,,,,,,,,,,,,,,,,,,,,,,,,,,,,,,,,,,,,,,,,,,,1563.94480299131,None,1564.4455782094738,None,1564.4455782094738,None,right,1,4.214022115366788,1564.4455782094738,None,,,,,,,,,,,,,1568.6760919125854,None,,,,,,,,,,,,,,,,,,,,,,,,,,,,,,,,,1558.4545039630102,None,1558.4545039630102,None,1558.9544221754095,None,1563.4554077961866,1563.4554077961866,0.009882732616460999,None,1563.4554077961866,1563.4554077961866,1570.1766409158677,None,1570.1766409158677,None,None,0.007804686077179213,None,,NENA_029,001,2021_Jan_29_1335,test7,3.2.4,99.96479561939744,
150,99,Turismen orsakar nedskräpning som staden inte kan hantera.  ,6,,7,,cor,1,no,151,152,,,,,,,,,,,,,0,74,74,74,,,,,,,,,,,,,,,,,,,,,,,,,,,,,,,,,,,,,,,,,,,,,,,,,,,,,,,,,,,,,,,,,,,,,,,,,,,,,,,,,,,,,,,,,,,,,1575.6769572574794,None,1576.1777263816657,None,1576.1777263816657,None,left,1,8.85756705300355,1576.1777263816657,None,,,,,,,,,,,,,1585.049068711849,None,,,,,,,,,,,,,,,,,,,,,,,,,,,,,,,,,1570.186609798091,None,1570.186609798091,None,1570.6867178860184,None,1575.1875271021663,1575.1875271021663,0.009882732615551504,None,1575.1875271021663,1575.1875271021663,1586.549625092051,None,1586.549625092051,None,None,0.00812478029547492,None,,NENA_029,001,2021_Jan_29_1335,test7,3.2.4,99.96479561939744,
170,48,Anställningen var ganska välbetalt och det fanns många sökande. ,4,,0,,inc,1,no,172,199,,,,,,,,,,,,,0,75,75,75,,,,,,,,,,,,,,,,,,,,,,,,,,,,,,,,,,,,,,,,,,,,,,,,,,,,,,,,,,,,,,,,,,,,,,,,,,,,,,,,,,,,,,,,,,,,,1592.550026428621,None,1593.0507509705467,None,1593.0507509705467,None,right,1,1.8723853626497657,1593.0507509705467,None,,,,,,,,,,,,,1594.941000348961,None,,,,,,,,,,,,,,,,,,,,,,,,,,,,,,,,,1586.5596382357999,None,1586.5596382357999,None,1587.0595619007054,None,1592.060629309084,1592.060629309084,0.00988433629481733,None,1592.060629309084,1592.060629309084,1596.441422340909,None,1596.441422340909,None,None,0.008720386474124098,None,,NENA_029,001,2021_Jan_29_1335,test7,3.2.4,99.96479561939744,
160,46,Den ensamma nattvakten öppnade ett skåp bakom disken som de oaktsamma kollegorna på arbetsplatsen kunde inte hitta.,15,,16,,inc,1,no,163,164,,,,,,,,,,,,,0,76,76,76,,,,,,,,,,,,,,,,,,,,,,,,,,,,,,,,,,,,,,,,,,,,,,,,,,,,,,,,,,,,,,,,,,,,,,,,,,,,,,,,,,,,,,,,,,,,,1606.4425610488315,None,1606.9433160606477,None,1606.9433160606477,None,right,1,3.267669649936579,1606.9433160606477,None,,,,,,,,,,,,,1610.223580359686,None,,,,,,,,,,,,,,,,,,,,,,,,,,,,,,,,,1596.45142714553,None,1596.45142714553,None,1596.9515114990163,None,1605.9531812490222,1605.9531812490222,0.009884977765977965,None,1605.9531812490222,1605.9531812490222,1611.724323087325,None,1611.724323087325,None,None,0.007805648283465416,None,,NENA_029,001,2021_Jan_29_1335,test7,3.2.4,99.96479561939744,
180,45,Citronen som den här gången inte köpts i affären utan plockats från gården var otroligt surt men smakade ändå bra. ,16,,0,,inc,1,no,182,199,,,,,,,,,,,,,0,77,77,77,,,,,,,,,,,,,,,,,,,,,,,,,,,,,,,,,,,,,,,,,,,,,,,,,,,,,,,,,,,,,,,,,,,,,,,,,,,,,,,,,,,,,,,,,,,,,1623.2256109373438,None,1623.7264092484784,None,1623.7264092484784,None,right,1,4.980395672378108,1623.7264092484784,None,,,,,,,,,,,,,1628.7174126123537,None,,,,,,,,,,,,,,,,,,,,,,,,,,,,,,,,,1611.7342127478332,None,1611.7342127478332,None,1612.234299667205,None,1622.7361615378895,1622.7361615378895,0.009876317902126175,None,1622.7361615378895,1622.7361615378895,1630.2175719217717,None,1630.2175719217717,None,None,0.008302467868816166,None,,NENA_029,001,2021_Jan_29_1335,test7,3.2.4,99.96479561939744,
180,44,Bröllopet som för att vara en vuxenfest avslutades alldeles för tidigt var ändå jättelyckat enligt de flesta gästerna. ,14,,0,,cor,1,no,181,199,,,,,,,,,,,,,0,78,78,78,,,,,,,,,,,,,,,,,,,,,,,,,,,,,,,,,,,,,,,,,,,,,,,,,,,,,,,,,,,,,,,,,,,,,,,,,,,,,,,,,,,,,,,,,,,,,1640.7187892099382,None,1641.2196058030067,None,1641.2196058030067,None,left,1,3.2868332867192294,1641.2196058030067,None,,,,,,,,,,,,,1644.5201354659266,None,,,,,,,,,,,,,,,,,,,,,,,,,,,,,,,,,1630.2275696702072,None,1630.2275696702072,None,1630.7276674945924,None,1640.2294225602918,1640.2294225602918,0.009878563051643141,None,1640.2294225602918,1640.2294225602918,1646.0204779154233,None,1646.0204779154233,None,None,0.0075407206031741225,None,,NENA_029,001,2021_Jan_29_1335,test7,3.2.4,99.96479561939744,
180,36,Biobesöket som de alla hade sett fram emot så mycket den här veckan blev ganska tråkigt av någon anledning. ,16,,0,,cor,1,no,181,199,,,,,,,,,,,,,0,79,79,79,,,,,,,,,,,,,,,,,,,,,,,,,,,,,,,,,,,,,,,,,,,,,,,,,,,,,,,,,,,,,,,,,,,,,,,,,,,,,,,,,,,,,,,,,,,,,1657.021802329311,None,1657.522597753824,None,1657.522597753824,None,left,1,2.6395325341454736,1657.522597753824,None,,,,,,,,,,,,,1660.1730163780476,None,,,,,,,,,,,,,,,,,,,,,,,,,,,,,,,,,1646.0304779090093,None,1646.0304779090093,None,1646.5305484708606,None,1656.5323420248433,1656.5323420248433,0.009880808202979097,None,1656.5323420248433,1656.5323420248433,1661.673338941932,None,1661.673338941932,None,None,0.00776619779298926,None,,NENA_029,001,2021_Jan_29_1335,test7,3.2.4,99.96479561939744,
150,31,Lakrits innehåller sötningsmedel som barnen fick inte äta.  ,6,,7,,inc,1,no,153,154,,,,,,,,,,,,,0,80,80,80,,,,,,,,,,,,,,,,,,,,,,,,,,,,,,,,,,,,,,,,,,,,,,,,,,,,,,,,,,,,,,,,,,,,,,,,,,,,,,,,,,,,,,,,,,,,,1667.173647265151,None,1667.674373731491,None,1667.674373731491,None,right,1,2.3756552630156875,1667.674373731491,None,,,,,,,,,,,,,1670.064921714833,None,,,,,,,,,,,,,,,,,,,,,,,,,,,,,,,,,1661.6833363696314,None,1661.6833363696314,None,1662.1833793482137,None,1666.6842337880944,1666.6842337880944,0.009883694824566192,None,1666.6842337880944,1666.6842337880944,1671.565048950681,None,1671.565048950681,None,None,0.008082443185230659,None,,NENA_029,001,2021_Jan_29_1335,test7,3.2.4,99.96479561939744,
180,49,Ålen som tidigt rödlistades på grund av det nära förestående utrotningshotet är fortfarande vanlig som julmat.  ,14,,0,,cor,1,no,181,199,,,,,,,,,,,,,0,81,81,81,,,,,,,,,,,,,,,,,,,,,,,,,,,,,,,,,,,,,,,,,,,,,,,,,,,,,,,,,,,,,,,,,,,,,,,,,,,,,,,,,,,,,,,,,,,,,1681.0664567558488,None,1681.566947802191,None,1681.566947802191,None,left,1,1.7708426881245032,1681.566947802191,None,,,,,,,,,,,,,1683.3475873619882,None,,,,,,,,,,,,,,,,,,,,,,,,,,,,,,,,,1671.5750033997983,None,1671.5750033997983,None,1672.075163767644,None,1680.5767773889038,1680.5767773889038,0.009875997167000605,None,1680.5767773889038,1680.5767773889038,1684.8475574373474,None,1684.8475574373474,None,None,0.008066406399848347,None,,NENA_029,001,2021_Jan_29_1335,test7,3.2.4,99.96479561939744,
160,6,Det svenska landslaget spelade en historisk match som de öldrickande gubbarna i restaurangen skulle inte glömma.,14,,15,,inc,1,no,163,164,,,,,,,,,,,,,0,82,82,82,,,,,,,,,,,,,,,,,,,,,,,,,,,,,,,,,,,,,,,,,,,,,,,,,,,,,,,,,,,,,,,,,,,,,,,,,,,,,,,,,,,,,,,,,,,,,1694.348594472057,None,1694.8493799537628,None,1694.8493799537628,None,right,1,1.7922764921268026,1694.8493799537628,None,,,,,,,,,,,,,1696.6596230970754,None,,,,,,,,,,,,,,,,,,,,,,,,,,,,,,,,,1684.8575728262458,None,1684.8575728262458,None,1685.357629596463,None,1693.8591906170705,1693.8591906170705,0.009878242316517571,None,1693.8591906170705,1693.8591906170705,1698.159993771313,None,1698.159993771313,None,None,0.007946771987008105,None,,NENA_029,001,2021_Jan_29_1335,test7,3.2.4,99.96479561939744,
170,49,Museet är väldigt populärt och har ett gott rykte. ,4,,0,,cor,1,no,173,199,,,,,,,,,,,,,0,83,83,83,,,,,,,,,,,,,,,,,,,,,,,,,,,,,,,,,,,,,,,,,,,,,,,,,,,,,,,,,,,,,,,,,,,,,,,,,,,,,,,,,,,,,,,,,,,,,1704.1603652794638,None,1704.6611876457746,None,1704.6611876457746,None,left,1,2.620272035183916,1704.6611876457746,None,,,,,,,,,,,,,1707.291596853198,None,,,,,,,,,,,,,,,,,,,,,,,,,,,,,,,,,1698.1700072357971,None,1698.1700072357971,None,1698.670039309367,None,1703.6710037615885,1703.6710037615885,0.009864129946436151,None,1703.6710037615885,1703.6710037615885,1708.7919328879811,None,1708.7919328879811,None,None,0.00861871325832908,None,,NENA_029,001,2021_Jan_29_1335,test7,3.2.4,99.96479561939744,
150,80,Dataviruset installerade programmet som användaren inte kunde upptäcka.  ,6,,7,,cor,1,no,151,152,,,,,,,,,,,,,0,84,84,84,,,,,,,,,,,,,,,,,,,,,,,,,,,,,,,,,,,,,,,,,,,,,,,,,,,,,,,,,,,,,,,,,,,,,,,,,,,,,,,,,,,,,,,,,,,,,1714.2922338342796,None,1714.7930196367224,None,1714.7930196367224,None,right,0,9.832072735156544,1714.7930196367224,None,,,,,,,,,,,,,1724.644693492145,None,,,,,,,,,,,,,,,,,,,,,,,,,,,,,,,,,1708.8019024116766,None,1708.8019024116766,None,1709.3020454597945,None,1713.8028623735981,1713.8028623735981,0.009883374088531127,None,1713.8028623735981,1713.8028623735981,1726.1450439600344,None,1726.1450439600344,None,None,0.007156479245168157,None,,NENA_029,001,2021_Jan_29_1335,test7,3.2.4,99.96479561939744,
160,40,Den trevliga städerskan avlägsnade de nytvättade sängkläderna som gästerna i ett av hotellets finaste rum inte hade efterfrågat.,16,,17,,cor,1,no,161,162,,,,,,,,,,,,,0,85,85,85,,,,,,,,,,,,,,,,,,,,,,,,,,,,,,,,,,,,,,,,,,,,,,,,,,,,,,,,,,,,,,,,,,,,,,,,,,,,,,,,,,,,,,,,,,,,,1736.6263211103105,None,1737.1270947247958,None,1737.1270947247958,None,left,1,2.3378639387883595,1737.1270947247958,None,,,,,,,,,,,,,1739.4779327430088,None,,,,,,,,,,,,,,,,,,,,,,,,,,,,,,,,,1726.1551077800223,None,1726.1551077800223,None,1726.6551873224735,None,1736.1369150101737,1736.1369150101737,0.009883053352496063,None,1736.1369150101737,1736.1369150101737,1740.9777684301148,None,1740.9777684301148,None,None,0.007984618798218435,None,,NENA_029,001,2021_Jan_29_1335,test7,3.2.4,99.96479561939744,
170,111,Villan är alltför stor för endast en person. ,4,,0,,cor,1,no,171,199,,,,,,,,,,,,,0,86,86,86,,,,,,,,,,,,,,,,,,,,,,,,,,,,,,,,,,,,,,,,,,,,,,,,,,,,,,,,,,,,,,,,,,,,,,,,,,,,,,,,,,,,,,,,,,,,,1746.478095356004,None,1746.9789077795085,None,1746.9789077795085,None,left,1,4.373798203367187,1746.9789077795085,None,,,,,,,,,,,,,1751.3693803899632,None,,,,,,,,,,,,,,,,,,,,,,,,,,,,,,,,,1740.98780113874,None,1740.98780113874,None,1741.4878665688211,None,1745.9887277441503,1745.9887277441503,0.009881128938104666,None,1745.9887277441503,1745.9887277441503,1752.8699842390483,None,1752.8699842390483,None,None,0.007726747302513104,None,,NENA_029,001,2021_Jan_29_1335,test7,3.2.4,99.96479561939744,
150,71,Gruvarbetarna andades damm som läkarna kunde inte identifiera.  ,6,,7,,inc,1,yes,153,154,,,,,,,,,,,,,0,87,87,87,,,,,,,,,,,,,,,,,,,,,,,,,,,,,,,,,,,,,,,,,,,,,,,,,,,,,,,,,,,,,,,,,,,,,,,,,,,,,,,,,,,,,,,,,,,,,1758.3703015428673,None,1758.8710886282524,None,1758.8710886282524,None,right,1,0.82556340431438,1758.8710886282524,None,,,,,,,,,,,,,1759.711738156514,None,,,,,,,,,,,,,,,,,,,,,,,,,,,,,,,,,1752.8799864777839,None,1752.8799864777839,None,1753.3800358710796,None,1757.880903140388,1757.880903140388,0.009882732615551504,None,1757.880903140388,1757.880903140388,1761.2113003522963,None,1761.2113003522963,None,space,0.007924320490019454,None,13.204494020203128,NENA_029,001,2021_Jan_29_1335,test7,3.2.4,99.96479561939744,
170,38,Tältet var lagom rymligt för familjen.  ,4,,0,,cor,1,no,173,199,,,,,,,,,,,,,0,88,88,88,,,,,,,,,,,,,,,,,,,,,,,,,,,,,,,,,,,,,,,,,,,,,,,,,,,,,,,,,,,,,,,,,,,,,,,,,,,,,,,,,,,,,,,,,,,,,1778.9140322506155,None,1779.4146438935777,None,1779.4146438935777,None,left,1,1.809602954874208,1779.4146438935777,None,,,,,,,,,,,,,1781.2350707158057,None,,,,,,,,,,,,,,,,,,,,,,,,,,,,,,,,,1774.4246870902607,None,1774.4246870902607,None,1774.9239962255824,None,1778.424651167863,1778.424651167863,0.009884336295726825,None,1778.424651167863,1778.424651167863,1782.7354372204795,None,1782.7354372204795,None,None,0.00795831847244699,None,,NENA_029,001,2021_Jan_29_1335,test7,3.2.4,99.96479561939744,
130,19,Fåglar äter ofta frön och ibland daggmaskar.,3,,4,,cor,1,no,131,132,,,,,,,,,,,,,0,89,89,89,,,,,,,,,,,,,,,,,,,,,,,,,,,,,,,,,,,,,,,,,,,,,,,,,,,,,,,,,,,,,,,,,,,,,,,,,,,,,,,,,,,,,,,,,,,,,1787.7356602280051,None,1788.2363514134186,None,1788.2363514134186,None,left,1,0.9478406790367444,1788.2363514134186,None,,,,,,,,,,,,,1789.196324240691,None,,,,,,,,,,,,,,,,,,,,,,,,,,,,,,,,,1782.7454275919936,None,1782.7454275919936,None,1783.2455151528375,None,1787.2462541278683,1787.2462541278683,0.009883053352496063,None,1787.2462541278683,1787.2462541278683,1790.6968799794217,None,1790.6968799794217,None,None,0.008077952886196726,None,,NENA_029,001,2021_Jan_29_1335,test7,3.2.4,99.96479561939744,
140,68,Kockar skär ofta grönsaker med vassa kniv.,3,,4,,inc,1,no,137,138,,,,,,,,,,,,,0,90,90,90,,,,,,,,,,,,,,,,,,,,,,,,,,,,,,,,,,,,,,,,,,,,,,,,,,,,,,,,,,,,,,,,,,,,,,,,,,,,,,,,,,,,,,,,,,,,,1795.6970802147134,None,1796.19785158405,None,1796.19785158405,None,right,1,3.450328305052608,1796.19785158405,None,,,,,,,,,,,,,1799.6582554800907,None,,,,,,,,,,,,,,,,,,,,,,,,,,,,,,,,,1790.706885425514,None,1790.706885425514,None,1791.2068741997646,None,1795.2077081125608,1795.2077081125608,0.009880487467853527,None,1795.2077081125608,1795.2077081125608,1801.1587759378958,None,1801.1587759378958,None,None,0.007568303873995319,None,,NENA_029,001,2021_Jan_29_1335,test7,3.2.4,99.96479561939744,
150,81,Politiken kräver skatter men ekonomin inte kan klara av dem. ,6,,7,,inc,1,no,157,158,,,,,,,,,,,,,0,91,91,91,,,,,,,,,,,,,,,,,,,,,,,,,,,,,,,,,,,,,,,,,,,,,,,,,,,,,,,,,,,,,,,,,,,,,,,,,,,,,,,,,,,,,,,,,,,,,1807.6592962674067,None,1808.1600737307208,None,1808.1600737307208,None,right,1,2.903634640993914,1808.1600737307208,None,,,,,,,,,,,,,1811.0804780373028,None,,,,,,,,,,,,,,,,,,,,,,,,,,,,,,,,,1801.1688003073932,None,1801.1688003073932,None,1801.6688859438227,None,1807.1699058833192,1807.1699058833192,0.009884015558782266,None,1807.1699058833192,1807.1699058833192,1812.5808410138839,None,1812.5808410138839,None,None,0.008141137815073307,None,,NENA_029,001,2021_Jan_29_1335,test7,3.2.4,99.96479561939744,
140,20,Sälar äter gärna fisk från rent vattnet.,3,,4,,inc,1,no,131,132,,,,,,,,,,,,,0,92,92,92,,,,,,,,,,,,,,,,,,,,,,,,,,,,,,,,,,,,,,,,,,,,,,,,,,,,,,,,,,,,,,,,,,,,,,,,,,,,,,,,,,,,,,,,,,,,,1817.5811105280854,None,1818.0818770863862,None,1818.0818770863862,None,left,0,2.9658374793771145,1818.0818770863862,None,,,,,,,,,,,,,1821.062284625984,None,,,,,,,,,,,,,,,,,,,,,,,,,,,,,,,,,1812.5908839860522,None,1812.5908839860522,None,1813.0909025887222,None,1817.091711163398,1817.091711163398,0.009876959374196304,None,1817.091711163398,1817.091711163398,1822.562643433001,None,1822.562643433001,None,None,0.008662974785693223,None,,NENA_029,001,2021_Jan_29_1335,test7,3.2.4,99.96479561939744,
170,63,Strejken är särskilt viktig för facket.  ,4,,0,,cor,1,no,171,199,,,,,,,,,,,,,0,93,93,93,,,,,,,,,,,,,,,,,,,,,,,,,,,,,,,,,,,,,,,,,,,,,,,,,,,,,,,,,,,,,,,,,,,,,,,,,,,,,,,,,,,,,,,,,,,,,1827.062825707094,None,1827.5635996423161,None,1827.5635996423161,None,left,1,2.9158270875404924,1827.5635996423161,None,,,,,,,,,,,,,1830.4938729861005,None,,,,,,,,,,,,,,,,,,,,,,,,,,,,,,,,,1822.572702762689,None,1822.572702762689,None,1823.0727935308896,None,1826.5734507183197,1826.5734507183197,0.0098817704092653,None,1826.5734507183197,1826.5734507183197,1831.9944393091096,None,1831.9944393091096,None,None,0.007970185693011445,None,,NENA_029,001,2021_Jan_29_1335,test7,3.2.4,99.96479561939744,
180,25,Pennan som hade använts flera gånger tidigare på de många lektionerna var återigen vässad och matematikboken låg på bordet.,14,,0,,cor,1,no,181,199,,,,,,,,,,,,,0,94,94,94,,,,,,,,,,,,,,,,,,,,,,,,,,,,,,,,,,,,,,,,,,,,,,,,,,,,,,,,,,,,,,,,,,,,,,,,,,,,,,,,,,,,,,,,,,,,,1842.9857465059058,None,1843.4865188374488,None,1843.4865188374488,None,left,1,4.664704191886813,1843.4865188374488,None,,,,,,,,,,,,,1848.16723158913,None,,,,,,,,,,,,,,,,,,,,,,,,,,,,,,,,,1832.0044264732678,None,1832.0044264732678,None,1832.5044806775995,None,1842.4963256519277,1842.4963256519277,0.009882411880425934,None,1842.4963256519277,1842.4963256519277,1849.6676385065007,None,1849.6676385065007,None,None,0.008593695874878904,None,,NENA_029,001,2021_Jan_29_1335,test7,3.2.4,99.96479561939744,
140,4,Musiker läser ofta noter av välkända kompositör.,3,,4,,inc,1,no,131,132,,,,,,,,,,,,,0,95,95,95,,,,,,,,,,,,,,,,,,,,,,,,,,,,,,,,,,,,,,,,,,,,,,,,,,,,,,,,,,,,,,,,,,,,,,,,,,,,,,,,,,,,,,,,,,,,,1854.667860231084,None,1855.1686274308558,None,1855.1686274308558,None,right,1,5.84656581881336,1855.1686274308558,None,,,,,,,,,,,,,1861.029482024689,None,,,,,,,,,,,,,,,,,,,,,,,,,,,,,,,,,1849.6776385000867,None,1849.6776385000867,None,1850.177745625807,None,1854.1784650359614,1854.1784650359614,0.009880166730908968,None,1854.1784650359614,1854.1784650359614,1862.5299492403697,None,1862.5299492403697,None,None,0.008239282937211101,None,,NENA_029,001,2021_Jan_29_1335,test7,3.2.4,99.96479561939744,
160,21,Praktikanten i blomsteraffären vattnade alla gamla orkidéer som den gamla och snart pensionerade ägaren inte ville bry sig om.,15,,16,,cor,1,no,161,162,,,,,,,,,,,,,0,96,96,96,,,,,,,,,,,,,,,,,,,,,,,,,,,,,,,,,,,,,,,,,,,,,,,,,,,,,,,,,,,,,,,,,,,,,,,,,,,,,,,,,,,,,,,,,,,,,1873.5312970679634,None,1874.0321133402958,None,1874.0321133402958,None,left,1,4.4706459488515975,1874.0321133402958,None,,,,,,,,,,,,,1878.5135103494995,None,,,,,,,,,,,,,,,,,,,,,,,,,,,,,,,,,1862.5399764964886,None,1862.5399764964886,None,1863.0400823392665,None,1873.041921116982,1873.041921116982,0.009879204524622764,None,1873.041921116982,1873.041921116982,1880.0131776503672,None,1880.0131776503672,None,None,0.007743104823020985,None,,NENA_029,001,2021_Jan_29_1335,test7,3.2.4,99.96479561939744,
170,85,Mönstret var mycket smakfull i sammanhanget.  ,4,,0,,inc,1,no,174,199,,,,,,,,,,,,,0,97,97,97,,,,,,,,,,,,,,,,,,,,,,,,,,,,,,,,,,,,,,,,,,,,,,,,,,,,,,,,,,,,,,,,,,,,,,,,,,,,,,,,,,,,,,,,,,,,,1884.5133066823364,None,1885.0140155082127,None,1885.0140155082127,None,right,1,4.488573470282972,1885.0140155082127,None,,,,,,,,,,,,,1889.5148609674934,None,,,,,,,,,,,,,,,,,,,,,,,,,,,,,,,,,1880.0232004161871,None,1880.0232004161871,None,1880.523264563325,None,1884.0239191848696,1884.0239191848696,0.009881770408355806,None,1884.0239191848696,1884.0239191848696,1891.0151758337201,None,1891.0151758337201,None,None,0.008287714026664617,None,,NENA_029,001,2021_Jan_29_1335,test7,3.2.4,99.96479561939744,
170,73,Badkaret är helt fullt men kranen rinner fortfarande. ,4,,0,,cor,1,no,173,199,,,,,,,,,,,,,0,98,98,98,,,,,,,,,,,,,,,,,,,,,,,,,,,,,,,,,,,,,,,,,,,,,,,,,,,,,,,,,,,,,,,,,,,,,,,,,,,,,,,,,,,,,,,,,,,,,1896.5155178341874,None,1897.0163100513437,None,1897.0163100513437,None,left,1,3.0140193570405245,1897.0163100513437,None,,,,,,,,,,,,,1900.0467918091808,None,,,,,,,,,,,,,,,,,,,,,,,,,,,,,,,,,1891.0251809590773,None,1891.0251809590773,None,1891.525152092865,None,1896.0261017912453,1896.0261017912453,0.009882732616460999,None,1896.0261017912453,1896.0261017912453,1901.5470778091963,None,1901.5470778091963,None,None,0.007756896457976836,None,,NENA_029,001,2021_Jan_29_1335,test7,3.2.4,99.96479561939744,
160,50,De giriga inbrottstjuvarna stal en mängd värdelös båtutrustning som den fullkomligt ovetande ägaren till den slitna båten inte hade tänkt spara ändå.,18,,19,,cor,1,no,161,162,,,,,,,,,,,,,0,99,99,99,,,,,,,,,,,,,,,,,,,,,,,,,,,,,,,,,,,,,,,,,,,,,,,,,,,,,,,,,,,,,,,,,,,,,,,,,,,,,,,,,,,,,,,,,,,,,1914.0487159025888,None,1914.5495049123883,None,1914.5495049123883,None,left,1,2.9446339636006087,1914.5495049123883,None,,,,,,,,,,,,,1917.5100730251024,None,,,,,,,,,,,,,,,,,,,,,,,,,,,,,,,,,1901.557122385042,None,1901.557122385042,None,1902.05716792951,None,1913.5593162171663,1913.5593162171663,0.009881770408355806,None,1913.5593162171663,1913.5593162171663,1919.0103083488789,None,1919.0103083488789,None,None,0.008282261519525491,None,,NENA_029,001,2021_Jan_29_1335,test7,3.2.4,99.96479561939744,
150,86,Sjön lagrar vatten men bönderna inte får använda det.  ,6,,7,,inc,1,no,157,158,,,,,,,,,,,,,0,100,100,100,,,,,,,,,,,,,,,,,,,,,,,,,,,,,,,,,,,,,,,,,,,,,,,,,,,,,,,,,,,,,,,,,,,,,,,,,,,,,,,,,,,,,,,,,,,,,1925.0107209111975,None,1925.5114791303704,None,1925.5114791303704,None,right,1,3.094429719112668,1925.5114791303704,None,,,,,,,,,,,,,1928.6220543634172,None,,,,,,,,,,,,,,,,,,,,,,,,,,,,,,,,,1919.0202971167146,None,1919.0202971167146,None,1919.520382753144,None,1924.5213010194266,1924.5213010194266,0.009883374089440622,None,1924.5213010194266,1924.5213010194266,1930.1223538343315,None,1930.1223538343315,None,None,0.007887115149969759,None,,NENA_029,001,2021_Jan_29_1335,test7,3.2.4,99.96479561939744,
150,43,Etanol innehåller energi som kroppen inte kan absorbera.  ,6,,7,,cor,1,no,151,152,,,,,,,,,,,,,0,101,101,101,,,,,,,,,,,,,,,,,,,,,,,,,,,,,,,,,,,,,,,,,,,,,,,,,,,,,,,,,,,,,,,,,,,,,,,,,,,,,,,,,,,,,,,,,,,,,1935.6226570257795,None,1936.123440583072,None,1936.123440583072,None,left,1,2.7384143853805654,1936.123440583072,None,,,,,,,,,,,,,1938.8737013411883,None,,,,,,,,,,,,,,,,,,,,,,,,,,,,,,,,,1930.1323387533394,None,1930.1323387533394,None,1930.6324397850822,None,1935.1332586233002,1935.1332586233002,0.009877280109321873,None,1935.1332586233002,1935.1332586233002,1940.374206403681,None,1940.374206403681,None,None,0.0083059959606544,None,,NENA_029,001,2021_Jan_29_1335,test7,3.2.4,99.96479561939744,
140,9,Meteorologer förutspår ofta väder utifrån datormodell.,3,,4,,inc,1,no,131,132,,,,,,,,,,,,,0,102,102,102,,,,,,,,,,,,,,,,,,,,,,,,,,,,,,,,,,,,,,,,,,,,,,,,,,,,,,,,,,,,,,,,,,,,,,,,,,,,,,,,,,,,,,,,,,,,,1944.874347623606,None,1945.3750952585006,None,1945.3750952585006,None,right,1,4.334504873899277,1945.3750952585006,None,,,,,,,,,,,,,1949.7258781101746,None,,,,,,,,,,,,,,,,,,,,,,,,,,,,,,,,,1940.384191643424,None,1940.384191643424,None,1940.8842913922244,None,1944.3849582017256,1944.3849582017256,0.009877600845356937,None,1944.3849582017256,1944.3849582017256,1951.2262157486362,None,1951.2262157486362,None,None,0.007867871007874783,None,,NENA_029,001,2021_Jan_29_1335,test7,3.2.4,99.96479561939744,
180,8,Bordet som visserligen är alldeles bedårande med sina röda vackra blommor på benen är för låg för de vuxna. ,16,,0,,inc,1,no,182,199,,,,,,,,,,,,,0,103,103,103,,,,,,,,,,,,,,,,,,,,,,,,,,,,,,,,,,,,,,,,,,,,,,,,,,,,,,,,,,,,,,,,,,,,,,,,,,,,,,,,,,,,,,,,,,,,,1962.2275019949766,None,1962.7282791375546,None,1962.7282791375546,None,right,1,1.509198378873407,1962.7282791375546,None,,,,,,,,,,,,,1964.2489816641828,None,,,,,,,,,,,,,,,,,,,,,,,,,,,,,,,,,1951.2361881589522,None,1951.2361881589522,None,1951.7362773234736,None,1961.7381090450035,1961.7381090450035,0.009883374088531127,None,1961.7381090450035,1961.7381090450035,1965.7488526322136,None,1965.7488526322136,None,None,0.00794131947986898,None,,NENA_029,001,2021_Jan_29_1335,test7,3.2.4,99.96479561939744,
150,105,Säljaren gav en ursäkt men pojken inte kunde godta den.  ,6,,7,,inc,1,no,157,158,,,,,,,,,,,,,0,104,104,104,,,,,,,,,,,,,,,,,,,,,,,,,,,,,,,,,,,,,,,,,,,,,,,,,,,,,,,,,,,,,,,,,,,,,,,,,,,,,,,,,,,,,,,,,,,,,1972.2493129841505,None,1972.7501087293995,None,1972.7501087293995,None,right,1,4.143051966879284,1972.7501087293995,None,,,,,,,,,,,,,1976.9105535513145,None,,,,,,,,,,,,,,,,,,,,,,,,,,,,,,,,,1965.7588487769708,None,1965.7588487769708,None,1966.2589045849809,None,1971.7599408819979,1971.7599408819979,0.009880487466944032,None,1971.7599408819979,1971.7599408819979,1978.411159645549,None,1978.411159645549,None,None,0.007739897467217816,None,,NENA_029,001,2021_Jan_29_1335,test7,3.2.4,99.96479561939744,
140,52,Skådespelare spelar ofta roller skriven för dem.,3,,4,,inc,1,no,135,136,,,,,,,,,,,,,0,105,105,105,,,,,,,,,,,,,,,,,,,,,,,,,,,,,,,,,,,,,,,,,,,,,,,,,,,,,,,,,,,,,,,,,,,,,,,,,,,,,,,,,,,,,,,,,,,,,1983.4113643711398,None,1983.9121485699043,None,1983.9121485699043,None,right,1,2.6128200621460564,1983.9121485699043,None,,,,,,,,,,,,,1986.5425991522316,None,,,,,,,,,,,,,,,,,,,,,,,,,,,,,,,,,1978.4211580354558,None,1978.4211580354558,None,1978.9212334083431,None,1982.9219720626388,1982.9219720626388,0.009883694823656697,None,1982.9219720626388,1982.9219720626388,1988.0429092074241,None,1988.0429092074241,None,None,0.0080792358276085,None,,NENA_029,001,2021_Jan_29_1335,test7,3.2.4,99.96479561939744,
170,41,Experimentet var för enkelt för forskningsfrågan.  ,4,,0,,cor,1,no,173,199,,,,,,,,,,,,,0,106,106,106,,,,,,,,,,,,,,,,,,,,,,,,,,,,,,,,,,,,,,,,,,,,,,,,,,,,,,,,,,,,,,,,,,,,,,,,,,,,,,,,,,,,,,,,,,,,,1992.5430100146514,None,1993.0438067221075,None,1993.0438067221075,None,left,1,5.3529612884849485,1993.0438067221075,None,,,,,,,,,,,,,1998.4146737219971,None,,,,,,,,,,,,,,,,,,,,,,,,,,,,,,,,,1988.0529284451504,None,1988.0529284451504,None,1988.5530160059943,None,1992.0536427235338,1992.0536427235338,0.00988209114620986,None,1992.0536427235338,1992.0536427235338,1999.915067489204,None,1999.915067489204,None,None,0.007767160001094453,None,,NENA_029,001,2021_Jan_29_1335,test7,3.2.4,99.96479561939744,
170,28,Vinden är väldigt ovanlig för årstiden.  ,4,,0,,cor,1,no,171,199,,,,,,,,,,,,,0,107,107,107,,,,,,,,,,,,,,,,,,,,,,,,,,,,,,,,,,,,,,,,,,,,,,,,,,,,,,,,,,,,,,,,,,,,,,,,,,,,,,,,,,,,,,,,,,,,,2004.415200690737,None,2004.915986493179,None,2004.915986493179,None,left,1,5.168638656604344,2004.915986493179,None,,,,,,,,,,,,,2010.096855763877,None,,,,,,,,,,,,,,,,,,,,,,,,,,,,,,,,,1999.9251066125444,None,1999.9251066125444,None,2000.4249966002017,None,2003.9258045334072,2003.9258045334072,0.00988209114620986,None,2003.9258045334072,2003.9258045334072,2011.5971940438098,None,2011.5971940438098,None,None,0.00848657015558274,None,,NENA_029,001,2021_Jan_29_1335,test7,3.2.4,99.96479561939744,
