trig_exp,trig_item,sentence,trig_w1,trig1,trig_w2,trig2,gram,task,paus,trig_1,trig_2,prac_trials.thisRepN,prac_trials.thisTrialN,prac_trials.thisN,prac_trials.thisIndex,trials_2.thisRepN,trials_2.thisTrialN,trials_2.thisN,trials_2.thisIndex,trials.thisRepN,trials.thisTrialN,trials.thisN,trials.thisIndex,exp_trials.thisRepN,exp_trials.thisTrialN,exp_trials.thisN,exp_trials.thisIndex,grating_1.started,grating_1.stopped,text_1.started,text_1.stopped,key_resp_1.keys,key_resp_1.rt,key_resp_1.started,key_resp_1.stopped,grating_2.started,grating_2.stopped,text_2.started,text_2.stopped,key_resp_2.keys,key_resp_2.rt,key_resp_2.started,key_resp_2.stopped,grating_3.started,grating_3.stopped,text_3.started,text_3.stopped,key_resp_3.keys,key_resp_3.rt,key_resp_3.started,key_resp_3.stopped,grating_4.started,grating_4.stopped,text_4.started,text_4.stopped,key_resp_4.keys,key_resp_4.rt,key_resp_4.started,key_resp_4.stopped,grating_5.started,grating_5.stopped,text_5.started,text_5.stopped,key_resp_5.keys,key_resp_5.rt,key_resp_5.started,key_resp_5.stopped,grating_6.started,grating_6.stopped,text_6.started,text_6.stopped,key_resp_6.keys,key_resp_6.rt,key_resp_6.started,key_resp_6.stopped,grating_7.started,grating_7.stopped,text_7.started,text_7.stopped,key_resp_7.keys,key_resp_7.rt,key_resp_7.started,key_resp_7.stopped,grating_8.started,grating_8.stopped,text_8.started,text_8.stopped,key_resp_8.keys,key_resp_8.rt,key_resp_8.started,key_resp_8.stopped,grating_9.started,grating_9.stopped,text_9.started,text_9.stopped,key_resp_9.keys,key_resp_9.rt,key_resp_9.started,key_resp_9.stopped,grating.started,grating.stopped,text.started,text.stopped,key_resp.keys,key_resp.rt,key_resp.started,key_resp.stopped,grating_14.started,grating_14.stopped,text_fix_4.started,text_fix_4.stopped,grating_16.started,grating_16.stopped,grating_40.started,grating_40.stopped,ISI_4.started,ISI_4.stopped,text_19.started,text_19.stopped,grating_24.started,grating_24.stopped,grating_35.started,grating_35.stopped,prompt.started,prompt.stopped,Button_Press.keys,Button_Press.corr,Button_Press.rt,Button_Press.started,Button_Press.stopped,grating_33.started,grating_33.stopped,grating_34.started,grating_34.stopped,Correct_Incorrect.started,Correct_Incorrect.stopped,Continue_text.started,Continue_text.stopped,Press_Bar.keys,Press_Bar.rt,Press_Bar.started,Press_Bar.stopped,grating_26.started,grating_26.stopped,grating_27.started,grating_27.stopped,text_10.started,text_10.stopped,key_resp_11.keys,key_resp_11.rt,key_resp_11.started,key_resp_11.stopped,grating_28.started,grating_28.stopped,text_11.started,text_11.stopped,key_resp_12.keys,key_resp_12.rt,key_resp_12.started,key_resp_12.stopped,grating_29.started,grating_29.stopped,text_12.started,text_12.stopped,key_resp_13.keys,key_resp_13.rt,key_resp_13.started,key_resp_13.stopped,grating_36.started,grating_36.stopped,text_14.started,text_14.stopped,key_resp_14.keys,key_resp_14.rt,key_resp_14.started,key_resp_14.stopped,grating_10.started,grating_10.stopped,text_fix.started,text_fix.stopped,grating_11.started,grating_11.stopped,grating_37.started,grating_37.stopped,ISI_2.started,ISI_2.stopped,text_15.started,text_15.stopped,grating_38.started,grating_38.stopped,text_fix_3.started,text_fix_3.stopped,key_resp_16.keys,key_resp_16.started,key_resp_16.stopped,key_resp_16.rt,participant,session,date,expName,psychopyVersion,frameRate,
,,,,,,,,,,,,,,,,,,,,,,,,,,,,69.82097752540903,None,69.82097752540903,None,space,115.94338822617738,69.82097752540903,None,,,,,,,,,,,,,,,,,,,,,,,,,,,,,,,,,,,,,,,,,,,,,,,,,,,,,,,,,,,,,,,,,,,,,,,,,,,,,,,,,,,,,,,,,,,,,,,,,,,,,,,,,,,,,,,,,,,,,,,,,,,,,,,,,,,,,,,,,,,,,,,,,,,,,,,,,,,,,,,,,,026,001,2021_Jan_22_1035,test7,3.2.4,99.70426084383618,
,,,,,,,,,,,,,,,,,,,,,,,,,,,,,,,,,,,,185.78250720372398,None,185.78250720372398,None,space,18.901478014209715,185.78250720372398,None,,,,,,,,,,,,,,,,,,,,,,,,,,,,,,,,,,,,,,,,,,,,,,,,,,,,,,,,,,,,,,,,,,,,,,,,,,,,,,,,,,,,,,,,,,,,,,,,,,,,,,,,,,,,,,,,,,,,,,,,,,,,,,,,,,,,,,,,,,,,,,,,,,,,,,,,,,026,001,2021_Jan_22_1035,test7,3.2.4,99.70426084383618,
,,,,,,,,,,,,,,,,,,,,,,,,,,,,,,,,,,,,,,,,,,,,204.6957244649484,None,204.6957244649484,None,space,11.020057527153767,204.6957244649484,None,,,,,,,,,,,,,,,,,,,,,,,,,,,,,,,,,,,,,,,,,,,,,,,,,,,,,,,,,,,,,,,,,,,,,,,,,,,,,,,,,,,,,,,,,,,,,,,,,,,,,,,,,,,,,,,,,,,,,,,,,,,,,,,,,,,,,,,,,,,,,,,,,,026,001,2021_Jan_22_1035,test7,3.2.4,99.70426084383618,
,,,,,,,,,,,,,,,,,,,,,,,,,,,,,,,,,,,,,,,,,,,,,,,,,,,,215.7280280015093,None,215.7280280015093,None,space,8.179652720224112,215.7280280015093,None,,,,,,,,,,,,,,,,,,,,,,,,,,,,,,,,,,,,,,,,,,,,,,,,,,,,,,,,,,,,,,,,,,,,,,,,,,,,,,,,,,,,,,,,,,,,,,,,,,,,,,,,,,,,,,,,,,,,,,,,,,,,,,,,,,,,,,,,,,026,001,2021_Jan_22_1035,test7,3.2.4,99.70426084383618,
,,,,,,,,,,,,,,,,,,,,,,,,,,,,,,,,,,,,,,,,,,,,,,,,,,,,,,,,,,,,223.91956943157948,None,223.91956943157948,None,space,14.571821381010523,223.91956943157948,None,,,,,,,,,,,,,,,,,,,,,,,,,,,,,,,,,,,,,,,,,,,,,,,,,,,,,,,,,,,,,,,,,,,,,,,,,,,,,,,,,,,,,,,,,,,,,,,,,,,,,,,,,,,,,,,,,,,,,,,,,,,,,,,,,,026,001,2021_Jan_22_1035,test7,3.2.4,99.70426084383618,
,,,,,,,,,,,,,,,,,,,,,,,,,,,,,,,,,,,,,,,,,,,,,,,,,,,,,,,,,,,,,,,,,,,,238.50196033654174,None,238.50196033654174,None,space,14.901269536010659,238.50196033654174,None,,,,,,,,,,,,,,,,,,,,,,,,,,,,,,,,,,,,,,,,,,,,,,,,,,,,,,,,,,,,,,,,,,,,,,,,,,,,,,,,,,,,,,,,,,,,,,,,,,,,,,,,,,,,,,,,,,,,,,,,,,026,001,2021_Jan_22_1035,test7,3.2.4,99.70426084383618,
,,,,,,,,,,,,,,,,,,,,,,,,,,,,,,,,,,,,,,,,,,,,,,,,,,,,,,,,,,,,,,,,,,,,,,,,,,,,253.41496976103917,None,253.41496976103917,None,space,6.092146080994098,253.41496976103917,None,,,,,,,,,,,,,,,,,,,,,,,,,,,,,,,,,,,,,,,,,,,,,,,,,,,,,,,,,,,,,,,,,,,,,,,,,,,,,,,,,,,,,,,,,,,,,,,,,,,,,,,,,,,,,,,,,,026,001,2021_Jan_22_1035,test7,3.2.4,99.70426084383618,
,,,,,,,,,,,,,,,,,,,,,,,,,,,,,,,,,,,,,,,,,,,,,,,,,,,,,,,,,,,,,,,,,,,,,,,,,,,,,,,,,,,,259.5260742079754,None,259.5260742079754,None,space,9.556915510521321,259.5260742079754,None,,,,,,,,,,,,,,,,,,,,,,,,,,,,,,,,,,,,,,,,,,,,,,,,,,,,,,,,,,,,,,,,,,,,,,,,,,,,,,,,,,,,,,,,,,,,,,,,,,,,,,,,,,026,001,2021_Jan_22_1035,test7,3.2.4,99.70426084383618,
,,,,,,,,,,,,,,,,,,,,,,,,,,,,,,,,,,,,,,,,,,,,,,,,,,,,,,,,,,,,,,,,,,,,,,,,,,,,,,,,,,,,,,,,,,,,269.0975017255578,None,269.0975017255578,None,space,4.129401455883453,269.0975017255578,None,,,,,,,,,,,,,,,,,,,,,,,,,,,,,,,,,,,,,,,,,,,,,,,,,,,,,,,,,,,,,,,,,,,,,,,,,,,,,,,,,,,,,,,,,,,,,,,,,,026,001,2021_Jan_22_1035,test7,3.2.4,99.70426084383618,
,,,,,,,,,,,,,,,,,,,,,,,,,,,,,,,,,,,,,,,,,,,,,,,,,,,,,,,,,,,,,,,,,,,,,,,,,,,,,,,,,,,,,,,,,,,,,,,,,,,,273.23858437529634,None,273.23858437529634,None,space,5.604152821576463,273.23858437529634,None,,,,,,,,,,,,,,,,,,,,,,,,,,,,,,,,,,,,,,,,,,,,,,,,,,,,,,,,,,,,,,,,,,,,,,,,,,,,,,,,,,,,,,,,,,026,001,2021_Jan_22_1035,test7,3.2.4,99.70426084383618,
199,1,Meningarna presenteras ord för ord.,99,99,99,99,cor,1,no,,,0,0,0,0,0,0,0,0,0,0,0,0,,,,,,,,,,,,,,,,,,,,,,,,,,,,,,,,,,,,,,,,,,,,,,,,,,,,,,,,,,,,,,,,,,,,,,,,,,,,,,,,,,,,,278.9192169430553,None,278.9192169430553,None,279.36970593668957,None,282.3802510847281,282.3802510847281,0.009872084191556496,None,282.3802510847281,282.3802510847281,282.86962928085904,None,283.3801978426036,None,283.3801978426036,None,left,1,3.1425118479764933,283.3801978426036,None,286.54068179427213,None,286.87063927754934,None,286.87063927754934,None,286.87063927754934,None,space,4.012017966330859,286.87063927754934,None,,,,,,,,,,,,,,,,,,,,,,,,,,,,,,,,,,,,,,,,,,,,,,,,,,,,,,,026,001,2021_Jan_22_1035,test7,3.2.4,99.70426084383618,
199,1,Meningarna presenteras ord för ord.,99,99,99,99,cor,1,no,,,0,0,0,0,0,0,0,0,,,,,,,,,,,,,,,,,,,,,,,,,,,,,,,,,,,,,,,,,,,,,,,,,,,,,,,,,,,,,,,,,,,,,,,,,,,,,,,,,,,,,,,,,,,,,,,,,,,,,,,,,,,,,,,,,,,,,,,,,,,,,,,,,,,,,,,,,,,,,,,,,,,,,,,,,,,,,,,,,,,,,,,,,,,,,,,,,,026,001,2021_Jan_22_1035,test7,3.2.4,99.70426084383618,
199,1,Meningarna presenteras ord för ord.,99,99,99,99,cor,1,no,,,0,0,0,0,,,,,,,,,,,,,,,,,,,,,,,,,,,,,,,,,,,,,,,,,,,,,,,,,,,,,,,,,,,,,,,,,,,,,,,,,,,,,,,,,,,,,,,,,,,,,,,,,,,,,,,,,,,,,,,,,,,,,,,,,,,,,,,,290.90178912782994,None,,,,,,,,,,,,,,,,,,,,,,,,,,,,,,,,,,,,,,,,,,,,,,,,,,,,,026,001,2021_Jan_22_1035,test7,3.2.4,99.70426084383618,
199,2,Läs meningen noggrant och ange ditt svar när du ser frågetecknet.,99,99,99,99,cor,1,no,,,0,1,1,1,0,0,0,0,0,0,0,0,,,,,,,,,,,,,,,,,,,,,,,,,,,,,,,,,,,,,,,,,,,,,,,,,,,,,,,,,,,,,,,,,,,,,,,,,,,,,,,,,,,,,292.40207875215856,None,292.40207875215856,None,292.90212141000575,None,298.9032622668574,298.9032622668574,0.009902233346110734,None,298.9032622668574,298.9032622668574,299.392657782716,None,299.8933916259757,None,299.8933916259757,None,left,1,0.8130008287807868,299.8933916259757,None,300.72382443954666,None,301.02343615691916,None,301.02343615691916,None,301.02343615691916,None,space,2.827155536283499,301.02343615691916,None,,,,,,,,,,,,,,,,,,,,,,,,,,,,,,,,,,,,,,,,,,,,,,,,,,,,,,,026,001,2021_Jan_22_1035,test7,3.2.4,99.70426084383618,
199,2,Läs meningen noggrant och ange ditt svar när du ser frågetecknet.,99,99,99,99,cor,1,no,,,0,1,1,1,0,0,0,0,,,,,,,,,,,,,,,,,,,,,,,,,,,,,,,,,,,,,,,,,,,,,,,,,,,,,,,,,,,,,,,,,,,,,,,,,,,,,,,,,,,,,,,,,,,,,,,,,,,,,,,,,,,,,,,,,,,,,,,,,,,,,,,,,,,,,,,,,,,,,,,,,,,,,,,,,,,,,,,,,,,,,,,,,,,,,,,,,,026,001,2021_Jan_22_1035,test7,3.2.4,99.70426084383618,
199,2,Läs meningen noggrant och ange ditt svar när du ser frågetecknet.,99,99,99,99,cor,1,no,,,0,1,1,1,,,,,,,,,,,,,,,,,,,,,,,,,,,,,,,,,,,,,,,,,,,,,,,,,,,,,,,,,,,,,,,,,,,,,,,,,,,,,,,,,,,,,,,,,,,,,,,,,,,,,,,,,,,,,,,,,,,,,,,,,,,,,,,,303.8741734641253,None,,,,,,,,,,,,,,,,,,,,,,,,,,,,,,,,,,,,,,,,,,,,,,,,,,,,,026,001,2021_Jan_22_1035,test7,3.2.4,99.70426084383618,
199,3,I den här meningen finns det en misstag.,99,99,99,99,inc,1,no,,,0,2,2,2,0,0,0,0,0,0,0,0,,,,,,,,,,,,,,,,,,,,,,,,,,,,,,,,,,,,,,,,,,,,,,,,,,,,,,,,,,,,,,,,,,,,,,,,,,,,,,,,,,,,,305.37440535602946,None,305.37440535602946,None,305.8745362161917,None,310.36535868513783,310.36535868513783,0.009905119968607323,None,310.36535868513783,310.36535868513783,310.8547323909688,None,311.3555332679889,None,311.3555332679889,None,left,0,1.9987279622500864,311.3555332679889,None,313.3655241847546,None,313.6756675792667,None,313.6756675792667,None,313.6756675792667,None,space,9.734333344452352,313.6756675792667,None,,,,,,,,,,,,,,,,,,,,,,,,,,,,,,,,,,,,,,,,,,,,,,,,,,,,,,,026,001,2021_Jan_22_1035,test7,3.2.4,99.70426084383618,
199,3,I den här meningen finns det en misstag.,99,99,99,99,inc,1,no,,,0,2,2,2,0,0,0,0,,,,,,,,,,,,,,,,,,,,,,,,,,,,,,,,,,,,,,,,,,,,,,,,,,,,,,,,,,,,,,,,,,,,,,,,,,,,,,,,,,,,,,,,,,,,,,,,,,,,,,,,,,,,,,,,,,,,,,,,,,,,,,,,,,,,,,,,,,,,,,,,,,,,,,,,,,,,,,,,,,,,,,,,,,,,,,,,,,026,001,2021_Jan_22_1035,test7,3.2.4,99.70426084383618,
199,3,I den här meningen finns det en misstag.,99,99,99,99,inc,1,no,,,0,2,2,2,,,,,,,,,,,,,,,,,,,,,,,,,,,,,,,,,,,,,,,,,,,,,,,,,,,,,,,,,,,,,,,,,,,,,,,,,,,,,,,,,,,,,,,,,,,,,,,,,,,,,,,,,,,,,,,,,,,,,,,,,,,,,,,,323.4275644101417,None,,,,,,,,,,,,,,,,,,,,,,,,,,,,,,,,,,,,,,,,,,,,,,,,,,,,,026,001,2021_Jan_22_1035,test7,3.2.4,99.70426084383618,
199,4,I det här meningen finns det ett till misstag.,99,99,99,99,inc,1,no,,,0,3,3,3,0,0,0,0,0,0,0,0,,,,,,,,,,,,,,,,,,,,,,,,,,,,,,,,,,,,,,,,,,,,,,,,,,,,,,,,,,,,,,,,,,,,,,,,,,,,,,,,,,,,,324.9280185718799,None,324.9280185718799,None,325.42810998155164,None,330.42902311606304,330.42902311606304,0.009910893209962524,None,330.42902311606304,330.42902311606304,330.9184272917846,None,331.41914092869683,None,331.41914092869683,None,right,1,2.830830205091843,331.41914092869683,None,334.26062052092584,None,334.57946964429175,None,334.57946964429175,None,334.57946964429175,None,space,3.6463725434859953,334.57946964429175,None,,,,,,,,,,,,,,,,,,,,,,,,,,,,,,,,,,,,,,,,,,,,,,,,,,,,,,,026,001,2021_Jan_22_1035,test7,3.2.4,99.70426084383618,
199,4,I det här meningen finns det ett till misstag.,99,99,99,99,inc,1,no,,,0,3,3,3,0,0,0,0,,,,,,,,,,,,,,,,,,,,,,,,,,,,,,,,,,,,,,,,,,,,,,,,,,,,,,,,,,,,,,,,,,,,,,,,,,,,,,,,,,,,,,,,,,,,,,,,,,,,,,,,,,,,,,,,,,,,,,,,,,,,,,,,,,,,,,,,,,,,,,,,,,,,,,,,,,,,,,,,,,,,,,,,,,,,,,,,,,026,001,2021_Jan_22_1035,test7,3.2.4,99.70426084383618,
199,4,I det här meningen finns det ett till misstag.,99,99,99,99,inc,1,no,,,0,3,3,3,,,,,,,,,,,,,,,,,,,,,,,,,,,,,,,,,,,,,,,,,,,,,,,,,,,,,,,,,,,,,,,,,,,,,,,,,,,,,,,,,,,,,,,,,,,,,,,,,,,,,,,,,,,,,,,,,,,,,,,,,,,,,,,,338.2406078967697,None,,,,,,,,,,,,,,,,,,,,,,,,,,,,,,,,,,,,,,,,,,,,,,,,,,,,,026,001,2021_Jan_22_1035,test7,3.2.4,99.70426084383618,
199,5,Ibland kan meningarna låta lite märkliga men ändå vara grammatiskt korrekta.,99,99,99,99,cor,1,no,,,0,4,4,4,0,0,0,0,0,0,0,0,,,,,,,,,,,,,,,,,,,,,,,,,,,,,,,,,,,,,,,,,,,,,,,,,,,,,,,,,,,,,,,,,,,,,,,,,,,,,,,,,,,,,339.7407066833621,None,339.7407066833621,None,340.2407968100915,None,346.2419075177877,346.2419075177877,0.009904799232572259,None,346.2419075177877,346.2419075177877,346.73131361792457,None,347.2320856287315,None,347.2320856287315,None,left,1,0.1935678381641992,347.2320856287315,None,347.4427098701917,None,347.742172766204,None,347.742172766204,None,347.742172766204,None,space,2.6675087047669876,347.742172766204,None,,,,,,,,,,,,,,,,,,,,,,,,,,,,,,,,,,,,,,,,,,,,,,,,,,,,,,,026,001,2021_Jan_22_1035,test7,3.2.4,99.70426084383618,
199,5,Ibland kan meningarna låta lite märkliga men ändå vara grammatiskt korrekta.,99,99,99,99,cor,1,no,,,0,4,4,4,0,0,0,0,,,,,,,,,,,,,,,,,,,,,,,,,,,,,,,,,,,,,,,,,,,,,,,,,,,,,,,,,,,,,,,,,,,,,,,,,,,,,,,,,,,,,,,,,,,,,,,,,,,,,,,,,,,,,,,,,,,,,,,,,,,,,,,,,,,,,,,,,,,,,,,,,,,,,,,,,,,,,,,,,,,,,,,,,,,,,,,,,,026,001,2021_Jan_22_1035,test7,3.2.4,99.70426084383618,
199,5,Ibland kan meningarna låta lite märkliga men ändå vara grammatiskt korrekta.,99,99,99,99,cor,1,no,,,0,4,4,4,,,,,,,,,,,,,,,,,,,,,,,,,,,,,,,,,,,,,,,,,,,,,,,,,,,,,,,,,,,,,,,,,,,,,,,,,,,,,,,,,,,,,,,,,,,,,,,,,,,,,,,,,,,,,,,,,,,,,,,,,,,,,,,,350.4326621832097,None,,,,,,,,,,,,,,,,,,,,,,,,,,,,,,,,,,,,,,,,,,,,,,,,,,,,,026,001,2021_Jan_22_1035,test7,3.2.4,99.70426084383618,
199,6,De gröna idéerna missade bussen i morse.,99,99,99,99,cor,1,no,,,0,5,5,5,0,0,0,0,0,0,0,0,,,,,,,,,,,,,,,,,,,,,,,,,,,,,,,,,,,,,,,,,,,,,,,,,,,,,,,,,,,,,,,,,,,,,,,,,,,,,,,,,,,,,351.93294026105286,None,351.93294026105286,None,352.43303904764616,None,356.4237046768394,356.4237046768394,0.009903837023557571,None,356.4237046768394,356.4237046768394,356.91313386994534,None,357.4139446897716,None,357.4139446897716,None,right,0,0.5876188967204143,357.4139446897716,None,358.0146021337905,None,358.32503707704564,None,358.32503707704564,None,358.32503707704564,None,space,4.692334288697566,358.32503707704564,None,,,,,,,,,,,,,,,,,,,,,,,,,,,,,,,,,,,,,,,,,,,,,,,,,,,,,,,026,001,2021_Jan_22_1035,test7,3.2.4,99.70426084383618,
199,6,De gröna idéerna missade bussen i morse.,99,99,99,99,cor,1,no,,,0,5,5,5,0,0,0,0,,,,,,,,,,,,,,,,,,,,,,,,,,,,,,,,,,,,,,,,,,,,,,,,,,,,,,,,,,,,,,,,,,,,,,,,,,,,,,,,,,,,,,,,,,,,,,,,,,,,,,,,,,,,,,,,,,,,,,,,,,,,,,,,,,,,,,,,,,,,,,,,,,,,,,,,,,,,,,,,,,,,,,,,,,,,,,,,,,026,001,2021_Jan_22_1035,test7,3.2.4,99.70426084383618,
199,6,De gröna idéerna missade bussen i morse.,99,99,99,99,cor,1,no,,,0,5,5,5,,,,,,,,,,,,,,,,,,,,,,,,,,,,,,,,,,,,,,,,,,,,,,,,,,,,,,,,,,,,,,,,,,,,,,,,,,,,,,,,,,,,,,,,,,,,,,,,,,,,,,,,,,,,,,,,,,,,,,,,,,,,,,,,363.03517925276265,None,,,,,,,,,,,,,,,,,,,,,,,,,,,,,,,,,,,,,,,,,,,,,,,,,,,,,026,001,2021_Jan_22_1035,test7,3.2.4,99.70426084383618,
199,7,Det bruna bordet är mer än hundra år gamla.,99,99,99,99,inc,1,no,,,0,6,6,6,0,0,0,0,0,0,0,0,,,,,,,,,,,,,,,,,,,,,,,,,,,,,,,,,,,,,,,,,,,,,,,,,,,,,,,,,,,,,,,,,,,,,,,,,,,,,,,,,,,,,364.53524949387884,None,364.53524949387884,None,365.0353380169299,None,370.0362251718507,370.0362251718507,0.009908006590194418,None,370.0362251718507,370.0362251718507,370.5256453843567,None,371.0263798690885,None,371.0263798690885,None,right,1,0.9750320094217386,371.0263798690885,None,372.01716577416664,None,372.3366974230812,None,372.3366974230812,None,372.3366974230812,None,space,3.776797787693795,372.3366974230812,None,,,,,,,,,,,,,,,,,,,,,,,,,,,,,,,,,,,,,,,,,,,,,,,,,,,,,,,026,001,2021_Jan_22_1035,test7,3.2.4,99.70426084383618,
199,7,Det bruna bordet är mer än hundra år gamla.,99,99,99,99,inc,1,no,,,0,6,6,6,0,0,0,0,,,,,,,,,,,,,,,,,,,,,,,,,,,,,,,,,,,,,,,,,,,,,,,,,,,,,,,,,,,,,,,,,,,,,,,,,,,,,,,,,,,,,,,,,,,,,,,,,,,,,,,,,,,,,,,,,,,,,,,,,,,,,,,,,,,,,,,,,,,,,,,,,,,,,,,,,,,,,,,,,,,,,,,,,,,,,,,,,,026,001,2021_Jan_22_1035,test7,3.2.4,99.70426084383618,
199,7,Det bruna bordet är mer än hundra år gamla.,99,99,99,99,inc,1,no,,,0,6,6,6,,,,,,,,,,,,,,,,,,,,,,,,,,,,,,,,,,,,,,,,,,,,,,,,,,,,,,,,,,,,,,,,,,,,,,,,,,,,,,,,,,,,,,,,,,,,,,,,,,,,,,,,,,,,,,,,,,,,,,,,,,,,,,,,376.1373524936562,None,,,,,,,,,,,,,,,,,,,,,,,,,,,,,,,,,,,,,,,,,,,,,,,,,,,,,026,001,2021_Jan_22_1035,test7,3.2.4,99.70426084383618,
199,8,På våren gilla alla att tillbringa tid i solen.,99,99,99,99,inc,1,no,,,0,7,7,7,0,0,0,0,0,0,0,0,,,,,,,,,,,,,,,,,,,,,,,,,,,,,,,,,,,,,,,,,,,,,,,,,,,,,,,,,,,,,,,,,,,,,,,,,,,,,,,,,,,,,377.6376247982571,None,377.6376247982571,None,378.1376953601093,None,383.1386264558196,383.1386264558196,0.00990672364605416,None,383.1386264558196,383.1386264558196,383.6280505171544,None,384.128811943684,None,384.128811943684,None,right,1,0.6242677604177516,384.128811943684,None,384.76967328579576,None,385.0687532233942,None,385.0687532233942,None,385.0687532233942,None,space,2.612270641907344,385.0687532233942,None,,,,,,,,,,,,,,,,,,,,,,,,,,,,,,,,,,,,,,,,,,,,,,,,,,,,,,,026,001,2021_Jan_22_1035,test7,3.2.4,99.70426084383618,
199,8,På våren gilla alla att tillbringa tid i solen.,99,99,99,99,inc,1,no,,,0,7,7,7,0,0,0,0,,,,,,,,,,,,,,,,,,,,,,,,,,,,,,,,,,,,,,,,,,,,,,,,,,,,,,,,,,,,,,,,,,,,,,,,,,,,,,,,,,,,,,,,,,,,,,,,,,,,,,,,,,,,,,,,,,,,,,,,,,,,,,,,,,,,,,,,,,,,,,,,,,,,,,,,,,,,,,,,,,,,,,,,,,,,,,,,,,026,001,2021_Jan_22_1035,test7,3.2.4,99.70426084383618,
199,8,På våren gilla alla att tillbringa tid i solen.,99,99,99,99,inc,1,no,,,0,7,7,7,,,,,,,,,,,,,,,,,,,,,,,,,,,,,,,,,,,,,,,,,,,,,,,,,,,,,,,,,,,,,,,,,,,,,,,,,,,,,,,,,,,,,,,,,,,,,,,,,,,,,,,,,,,,,,,,,,,,,,,,,,,,,,,,387.7001612017584,None,,,,,,,,,,,,,,,,,,,,,,,,,,,,,,,,,,,,,,,,,,,,,,,,,,,,,026,001,2021_Jan_22_1035,test7,3.2.4,99.70426084383618,
199,9,Tidningen avskedade dem journalist som publicerade falska fakta.,99,99,99,99,inc,1,no,,,0,8,8,8,0,0,0,0,0,0,0,0,,,,,,,,,,,,,,,,,,,,,,,,,,,,,,,,,,,,,,,,,,,,,,,,,,,,,,,,,,,,,,,,,,,,,,,,,,,,,,,,,,,,,389.199770866423,None,389.199770866423,None,389.69983340988256,None,394.20066828488507,394.20066828488507,0.009906082174893527,None,394.20066828488507,394.20066828488507,394.69003557600263,None,395.19083484934436,None,395.19083484934436,None,right,1,0.5861569834414695,395.19083484934436,None,395.8009527132954,None,396.10066257579,None,396.10066257579,None,396.10066257579,None,space,2.9003865506538204,396.10066257579,None,,,,,,,,,,,,,,,,,,,,,,,,,,,,,,,,,,,,,,,,,,,,,,,,,,,,,,,026,001,2021_Jan_22_1035,test7,3.2.4,99.70426084383618,
199,9,Tidningen avskedade dem journalist som publicerade falska fakta.,99,99,99,99,inc,1,no,,,0,8,8,8,0,0,0,0,,,,,,,,,,,,,,,,,,,,,,,,,,,,,,,,,,,,,,,,,,,,,,,,,,,,,,,,,,,,,,,,,,,,,,,,,,,,,,,,,,,,,,,,,,,,,,,,,,,,,,,,,,,,,,,,,,,,,,,,,,,,,,,,,,,,,,,,,,,,,,,,,,,,,,,,,,,,,,,,,,,,,,,,,,,,,,,,,,026,001,2021_Jan_22_1035,test7,3.2.4,99.70426084383618,
199,9,Tidningen avskedade dem journalist som publicerade falska fakta.,99,99,99,99,inc,1,no,,,0,8,8,8,,,,,,,,,,,,,,,,,,,,,,,,,,,,,,,,,,,,,,,,,,,,,,,,,,,,,,,,,,,,,,,,,,,,,,,,,,,,,,,,,,,,,,,,,,,,,,,,,,,,,,,,,,,,,,,,,,,,,,,,,,,,,,,,399.0214857631845,None,,,,,,,,,,,,,,,,,,,,,,,,,,,,,,,,,,,,,,,,,,,,,,,,,,,,,026,001,2021_Jan_22_1035,test7,3.2.4,99.70426084383618,
199,10,Bra jobbat!,99,99,99,99,cor,1,no,,,0,9,9,9,0,0,0,0,0,0,0,0,,,,,,,,,,,,,,,,,,,,,,,,,,,,,,,,,,,,,,,,,,,,,,,,,,,,,,,,,,,,,,,,,,,,,,,,,,,,,,,,,,,,,400.52181644168104,None,400.52181644168104,None,401.02190432326097,None,402.5221788730123,402.5221788730123,0.009905440702823398,None,402.5221788730123,402.5221788730123,403.0115901049194,None,403.5123743036829,None,403.5123743036829,None,left,1,1.896397881604571,403.5123743036829,None,405.4235487992937,None,405.72261334157884,None,405.72261334157884,None,405.72261334157884,None,space,4.254016573055196,405.72261334157884,None,,,,,,,,,,,,,,,,,,,,,,,,,,,,,,,,,,,,,,,,,,,,,,,,,,,,,,,026,001,2021_Jan_22_1035,test7,3.2.4,99.70426084383618,
199,10,Bra jobbat!,99,99,99,99,cor,1,no,,,0,9,9,9,0,0,0,0,,,,,,,,,,,,,,,,,,,,,,,,,,,,,,,,,,,,,,,,,,,,,,,,,,,,,,,,,,,,,,,,,,,,,,,,,,,,,,,,,,,,,,,,,,,,,,,,,,,,,,,,,,,,,,,,,,,,,,,,,,,,,,,,,,,,,,,,,,,,,,,,,,,,,,,,,,,,,,,,,,,,,,,,,,,,,,,,,,026,001,2021_Jan_22_1035,test7,3.2.4,99.70426084383618,
199,10,Bra jobbat!,99,99,99,99,cor,1,no,,,0,9,9,9,,,,,,,,,,,,,,,,,,,,,,,,,,,,,,,,,,,,,,,,,,,,,,,,,,,,,,,,,,,,,,,,,,,,,,,,,,,,,,,,,,,,,,,,,,,,,,,,,,,,,,,,,,,,,,,,,,,,,,,,,,,,,,,,409.9940628616296,None,,,,,,,,,,,,,,,,,,,,,,,,,,,,,,,,,,,,,,,,,,,,,,,,,,,,,026,001,2021_Jan_22_1035,test7,3.2.4,99.70426084383618,
,,,,,,,,,,,,,,,,,,,,,,,,,,,,,,,,,,,,,,,,,,,,,,,,,,,,,,,,,,,,,,,,,,,,,,,,,,,,,,,,,,,,,,,,,,,,,,,,,,,,,,,,,,,,,,,,,,,,,,,,,,,,,,,,,,,,,,,,,,,,,,,,,411.4938075560194,None,411.4938075560194,None,space,85.46577814327429,411.4938075560194,None,,,,,,,,,,,,,,,,,,,,,,,,,,,,,,,,,,,,,,,,,,,,,026,001,2021_Jan_22_1035,test7,3.2.4,99.70426084383618,
,,,,,,,,,,,,,,,,,,,,,,,,,,,,,,,,,,,,,,,,,,,,,,,,,,,,,,,,,,,,,,,,,,,,,,,,,,,,,,,,,,,,,,,,,,,,,,,,,,,,,,,,,,,,,,,,,,,,,,,,,,,,,,,,,,,,,,,,,,,,,,,,,,,,,,,,,496.96936845859545,None,496.96936845859545,None,space,23.83776258630951,496.96936845859545,None,,,,,,,,,,,,,,,,,,,,,,,,,,,,,,,,,,,,,026,001,2021_Jan_22_1035,test7,3.2.4,99.70426084383618,
,,,,,,,,,,,,,,,,,,,,,,,,,,,,,,,,,,,,,,,,,,,,,,,,,,,,,,,,,,,,,,,,,,,,,,,,,,,,,,,,,,,,,,,,,,,,,,,,,,,,,,,,,,,,,,,,,,,,,,,,,,,,,,,,,,,,,,,,,,,,,,,,,,,,,,,,,,,,,,,,,520.8237794724027,None,520.8237794724027,None,space,5.431273076932484,520.8237794724027,None,,,,,,,,,,,,,,,,,,,,,,,,,,,,,026,001,2021_Jan_22_1035,test7,3.2.4,99.70426084383618,
,,,,,,,,,,,,,,,,,,,,,,,,,,,,,,,,,,,,,,,,,,,,,,,,,,,,,,,,,,,,,,,,,,,,,,,,,,,,,,,,,,,,,,,,,,,,,,,,,,,,,,,,,,,,,,,,,,,,,,,,,,,,,,,,,,,,,,,,,,,,,,,,,,,,,,,,,,,,,,,,,,,,,,,,,526.2647641053145,None,526.2647641053145,None,space,3.1020253817396224,526.2647641053145,None,,,,,,,,,,,,,,,,,,,,,026,001,2021_Jan_22_1035,test7,3.2.4,99.70426084383618,
170,34,Festen var ganska trevlig men slutade för tidigt. ,4,,0,,cor,1,no,171,199,,,,,,,,,,,,,0,0,0,0,,,,,,,,,,,,,,,,,,,,,,,,,,,,,,,,,,,,,,,,,,,,,,,,,,,,,,,,,,,,,,,,,,,,,,,,,,,,,,,,,,,,,,,,,,,,,534.8856644617163,None,535.3861192649256,None,535.3861192649256,None,left,1,1.100807869057462,535.3861192649256,None,,,,,,,,,,,,,536.5066228712776,None,,,,,,,,,,,,,,,,,,,,,,,,,,,,,,,,,529.4846486276365,None,529.4846486276365,None,529.8954642200097,None,534.3962667007072,534.3962667007072,0.009870480513200164,None,534.3962667007072,534.3962667007072,538.0069078449383,None,538.0069078449383,None,None,0.006755816219992994,None,,026,001,2021_Jan_22_1035,test7,3.2.4,99.70426084383618,
150,70,Ingenjören hade information som kommittén inte kunde veta.  ,6,,7,,cor,1,no,151,152,,,,,,,,,,,,,0,1,1,1,,,,,,,,,,,,,,,,,,,,,,,,,,,,,,,,,,,,,,,,,,,,,,,,,,,,,,,,,,,,,,,,,,,,,,,,,,,,,,,,,,,,,,,,,,,,,543.5072229677544,None,544.0080286558095,None,544.0080286558095,None,left,1,1.2865305122277277,544.0080286558095,None,,,,,,,,,,,,,545.3081516258735,None,,,,,,,,,,,,,,,,,,,,,,,,,,,,,,,,,538.0174101747625,None,538.0174101747625,None,538.5170095758849,None,543.0178341873461,543.0178341873461,0.009877215964479547,None,543.0178341873461,543.0178341873461,546.808463862068,None,546.808463862068,None,None,0.008267122795587056,None,,026,001,2021_Jan_22_1035,test7,3.2.4,99.70426084383618,
150,55,Förslagen innebar försämringar och facket inte kunde acceptera dem.  ,6,,7,,inc,1,no,157,158,,,,,,,,,,,,,0,2,2,2,,,,,,,,,,,,,,,,,,,,,,,,,,,,,,,,,,,,,,,,,,,,,,,,,,,,,,,,,,,,,,,,,,,,,,,,,,,,,,,,,,,,,,,,,,,,,552.8089387112586,None,553.3096911571893,None,553.3096911571893,None,right,1,1.128781473793424,553.3096911571893,None,,,,,,,,,,,,,554.4496483453886,None,,,,,,,,,,,,,,,,,,,,,,,,,,,,,,,,,546.8185152375117,None,546.8185152375117,None,547.3185970251125,None,552.3194867459188,552.3194867459188,0.009882347732855123,None,552.3194867459188,552.3194867459188,555.9501988882016,None,555.9501988882016,None,None,0.007620519643751322,None,,026,001,2021_Jan_22_1035,test7,3.2.4,99.70426084383618,
150,49,Regeringen presenterar förslag som riksdagen vill inte diskutera.  ,6,,7,,inc,1,no,153,154,,,,,,,,,,,,,0,3,3,3,,,,,,,,,,,,,,,,,,,,,,,,,,,,,,,,,,,,,,,,,,,,,,,,,,,,,,,,,,,,,,,,,,,,,,,,,,,,,,,,,,,,,,,,,,,,,561.4504986157044,None,561.9512796071122,None,561.9512796071122,None,right,1,1.3029290866215888,561.9512796071122,None,,,,,,,,,,,,,563.2714751789063,None,,,,,,,,,,,,,,,,,,,,,,,,,,,,,,,,,555.9601899653353,None,555.9601899653353,None,556.4602839408926,None,560.9610463296294,560.9610463296294,0.009881706263513479,None,560.9610463296294,560.9610463296294,564.7718008860006,None,564.7718008860006,None,None,0.007868769068409165,None,,026,001,2021_Jan_22_1035,test7,3.2.4,99.70426084383618,
140,49,Modeller röker gärna cigaretter för att bli mindre hungrigt.,3,,4,,inc,1,no,135,136,,,,,,,,,,,,,0,4,4,4,,,,,,,,,,,,,,,,,,,,,,,,,,,,,,,,,,,,,,,,,,,,,,,,,,,,,,,,,,,,,,,,,,,,,,,,,,,,,,,,,,,,,,,,,,,,,570.7721856084618,None,571.2729797500315,None,571.2729797500315,None,right,1,1.197207226046885,571.2729797500315,None,,,,,,,,,,,,,572.483364722666,None,,,,,,,,,,,,,,,,,,,,,,,,,,,,,,,,,564.7817890765118,None,564.7817890765118,None,565.2818532236506,None,570.2828009976165,570.2828009976165,0.009883309940050822,None,570.2828009976165,570.2828009976165,573.9834607830057,None,573.9834607830057,None,None,0.008149412797138211,None,,026,001,2021_Jan_22_1035,test7,3.2.4,99.70426084383618,
170,64,Flygplanet var lite skadat och kunde inte starta. ,4,,0,,cor,1,no,173,199,,,,,,,,,,,,,0,5,5,5,,,,,,,,,,,,,,,,,,,,,,,,,,,,,,,,,,,,,,,,,,,,,,,,,,,,,,,,,,,,,,,,,,,,,,,,,,,,,,,,,,,,,,,,,,,,,579.483809262334,None,579.9845751791627,None,579.9845751791627,None,left,1,1.3733446831001856,579.9845751791627,None,,,,,,,,,,,,,581.374690490059,None,,,,,,,,,,,,,,,,,,,,,,,,,,,,,,,,,573.993482009294,None,573.993482009294,None,574.4935528918813,None,578.9944005963116,578.9944005963116,0.00988106479144335,None,578.9944005963116,578.9944005963116,582.8751165874232,None,582.8751165874232,None,None,0.008549690937798005,None,,026,001,2021_Jan_22_1035,test7,3.2.4,99.70426084383618,
150,22,Vägen har skador som bilister inte kan upptäcka i mörkret. ,6,,7,,cor,1,no,151,152,,,,,,,,,,,,,0,6,6,6,,,,,,,,,,,,,,,,,,,,,,,,,,,,,,,,,,,,,,,,,,,,,,,,,,,,,,,,,,,,,,,,,,,,,,,,,,,,,,,,,,,,,,,,,,,,,589.3755891914643,None,589.8763794842062,None,589.8763794842062,None,left,1,1.3615082531714506,589.8763794842062,None,,,,,,,,,,,,,591.2563021355863,None,,,,,,,,,,,,,,,,,,,,,,,,,,,,,,,,,582.8851009291075,None,582.8851009291075,None,583.3851990742287,None,588.8861635264502,588.8861635264502,0.009880102584247652,None,588.8861635264502,588.8861635264502,592.7569001472816,None,592.7569001472816,None,None,0.007842468739909236,None,,026,001,2021_Jan_22_1035,test7,3.2.4,99.70426084383618,
140,57,Pensionärer matar ibland fåglar med torr bröd.,3,,4,,inc,1,no,135,136,,,,,,,,,,,,,0,7,7,7,,,,,,,,,,,,,,,,,,,,,,,,,,,,,,,,,,,,,,,,,,,,,,,,,,,,,,,,,,,,,,,,,,,,,,,,,,,,,,,,,,,,,,,,,,,,,597.7571386142681,None,598.2579128702255,None,598.2579128702255,None,right,1,0.9318045359723328,598.2579128702255,None,,,,,,,,,,,,,599.2079614937556,None,,,,,,,,,,,,,,,,,,,,,,,,,,,,,,,,,592.7669120722348,None,592.7669120722348,None,593.2670012367571,None,597.2677254579467,597.2677254579467,0.00988138552656892,None,597.2677254579467,597.2677254579467,600.7083619322661,None,600.7083619322661,None,None,0.007963065360854671,None,,026,001,2021_Jan_22_1035,test7,3.2.4,99.70426084383618,
170,40,Päronet är för beskt för barnen.  ,4,,0,,cor,1,no,173,199,,,,,,,,,,,,,0,8,8,8,,,,,,,,,,,,,,,,,,,,,,,,,,,,,,,,,,,,,,,,,,,,,,,,,,,,,,,,,,,,,,,,,,,,,,,,,,,,,,,,,,,,,,,,,,,,,605.2085038578089,None,605.7091834967378,None,605.7091834967378,None,left,1,1.3764827610975772,605.7091834967378,None,,,,,,,,,,,,,607.0997844014692,None,,,,,,,,,,,,,,,,,,,,,,,,,,,,,,,,,600.7183465946855,None,600.7183465946855,None,601.2184360799429,None,604.7190961539945,604.7190961539945,0.009883630677904875,None,604.7190961539945,604.7190961539945,608.5997403003116,None,608.5997403003116,None,None,0.00803266500679456,None,,026,001,2021_Jan_22_1035,test7,3.2.4,99.70426084383618,
130,70,Professorer ger ofta föreläsningar i stora auditorier.,3,,4,,cor,1,no,137,138,,,,,,,,,,,,,0,9,9,9,,,,,,,,,,,,,,,,,,,,,,,,,,,,,,,,,,,,,,,,,,,,,,,,,,,,,,,,,,,,,,,,,,,,,,,,,,,,,,,,,,,,,,,,,,,,,613.6000028224744,None,614.1007206289496,None,614.1007206289496,None,right,0,1.4249302079133486,614.1007206289496,None,,,,,,,,,,,,,615.5408020701561,None,,,,,,,,,,,,,,,,,,,,,,,,,,,,,,,,,608.6097724316132,None,608.6097724316132,None,609.1099141967879,None,613.1106230226642,613.1106230226642,0.009875291549178655,None,613.1106230226642,613.1106230226642,617.0412990501095,None,617.0412990501095,None,None,0.008241143205850676,None,,026,001,2021_Jan_22_1035,test7,3.2.4,99.70426084383618,
150,119,Byborna byggde murar och fienden inte kunde riva dem.  ,6,,7,,inc,1,no,157,158,,,,,,,,,,,,,0,10,10,10,,,,,,,,,,,,,,,,,,,,,,,,,,,,,,,,,,,,,,,,,,,,,,,,,,,,,,,,,,,,,,,,,,,,,,,,,,,,,,,,,,,,,,,,,,,,,623.0417585039859,None,623.5425314770009,None,623.5425314770009,None,right,1,1.1108366326343457,623.5425314770009,None,,,,,,,,,,,,,624.6723771518155,None,,,,,,,,,,,,,,,,,,,,,,,,,,,,,,,,,617.0512923723918,None,617.0512923723918,None,617.551404629884,None,622.5523398951582,622.5523398951582,0.009882989204925252,None,622.5523398951582,622.5523398951582,626.1730187835651,None,626.1730187835651,None,None,0.007589729016217461,None,,026,001,2021_Jan_22_1035,test7,3.2.4,99.70426084383618,
140,53,Döva använder ofta teckenspråk för att kommunicerar.,3,,4,,inc,1,no,135,136,,,,,,,,,,,,,0,11,11,11,,,,,,,,,,,,,,,,,,,,,,,,,,,,,,,,,,,,,,,,,,,,,,,,,,,,,,,,,,,,,,,,,,,,,,,,,,,,,,,,,,,,,,,,,,,,,631.1732238940394,None,631.6739862827762,None,631.6739862827762,None,right,1,1.2753852677114992,631.6739862827762,None,,,,,,,,,,,,,632.9642424607873,None,,,,,,,,,,,,,,,,,,,,,,,,,,,,,,,,,626.1830239730689,None,626.1830239730689,None,626.6830993459562,None,630.6838453771725,630.6838453771725,0.009884592884191079,None,630.6838453771725,630.6838453771725,634.464532245483,None,634.464532245483,None,None,0.007769982473291748,None,,026,001,2021_Jan_22_1035,test7,3.2.4,99.70426084383618,
180,32,Trädet som i många år hade stått i trädgården utanför deras fönster var nu fällt och skulle fraktas iväg. ,15,,0,,cor,1,no,181,199,,,,,,,,,,,,,0,12,12,12,,,,,,,,,,,,,,,,,,,,,,,,,,,,,,,,,,,,,,,,,,,,,,,,,,,,,,,,,,,,,,,,,,,,,,,,,,,,,,,,,,,,,,,,,,,,,645.46583202687,None,645.96661430122,None,645.96661430122,None,right,0,1.134373179825161,645.96661430122,None,,,,,,,,,,,,,647.1168289375437,None,,,,,,,,,,,,,,,,,,,,,,,,,,,,,,,,,634.4745518680929,None,634.4745518680929,None,634.974621467738,None,644.9764268889412,644.9764268889412,0.009882026998639049,None,644.9764268889412,644.9764268889412,648.6171155148836,None,648.6171155148836,None,None,0.007772548360662768,None,,026,001,2021_Jan_22_1035,test7,3.2.4,99.70426084383618,
180,54,Slipsen som till för några timmar sedan hade hängt i skyltfönstret i klädaffären hängde nu knuten så fint runt hans hals.,16,,0,,cor,1,no,181,199,,,,,,,,,,,,,0,13,13,13,,,,,,,,,,,,,,,,,,,,,,,,,,,,,,,,,,,,,,,,,,,,,,,,,,,,,,,,,,,,,,,,,,,,,,,,,,,,,,,,,,,,,,,,,,,,,660.5785991676266,None,661.0793708576984,None,661.0793708576984,None,right,0,2.3573989875021653,661.0793708576984,None,,,,,,,,,,,,,663.449507221685,None,,,,,,,,,,,,,,,,,,,,,,,,,,,,,,,,,648.6271146104091,None,648.6271146104091,None,649.1272024919881,None,660.0891844076268,660.0891844076268,0.009878498904981825,None,660.0891844076268,660.0891844076268,664.9500632170043,None,664.9500632170043,None,None,0.008051909147980041,None,,026,001,2021_Jan_22_1035,test7,3.2.4,99.70426084383618,
180,3,Utslaget som orsakades av ett okänt virus från den brasilianska regnskogen var extremt smittsam och patienten satt i karantän.,14,,0,,inc,1,no,182,199,,,,,,,,,,,,,0,14,14,14,,,,,,,,,,,,,,,,,,,,,,,,,,,,,,,,,,,,,,,,,,,,,,,,,,,,,,,,,,,,,,,,,,,,,,,,,,,,,,,,,,,,,,,,,,,,,675.9414108906449,None,676.4421790526239,None,676.4421790526239,None,left,0,1.6742669265049699,676.4421790526239,None,,,,,,,,,,,,,678.1326918833347,None,,,,,,,,,,,,,,,,,,,,,,,,,,,,,,,,,664.9600629540018,None,664.9600629540018,None,665.4601668723653,None,675.4519980550585,675.4519980550585,0.009880423319373222,None,675.4519980550585,675.4519980550585,679.6327834533745,None,679.6327834533745,None,None,0.008181165630958276,None,,026,001,2021_Jan_22_1035,test7,3.2.4,99.70426084383618,
150,6,Systern köpte godis som syskonen inte fick smaka på.  ,6,,7,,cor,1,no,151,152,,,,,,,,,,,,,0,15,15,15,,,,,,,,,,,,,,,,,,,,,,,,,,,,,,,,,,,,,,,,,,,,,,,,,,,,,,,,,,,,,,,,,,,,,,,,,,,,,,,,,,,,,,,,,,,,,685.6331832504129,None,686.1339247913293,None,686.1339247913293,None,left,1,1.4064051558898427,686.1339247913293,None,,,,,,,,,,,,,687.5540170220847,None,,,,,,,,,,,,,,,,,,,,,,,,,,,,,,,,,679.642777737864,None,679.642777737864,None,680.142800830834,None,685.1437787539544,685.1437787539544,0.009885234353532724,None,685.1437787539544,685.1437787539544,689.0544889846537,None,689.0544889846537,None,None,0.008644307968097564,None,,026,001,2021_Jan_22_1035,test7,3.2.4,99.70426084383618,
180,14,Flygeln som bandledaren hade bett pianisten att inte använda på konserten var extremt svårstämd och lät väldigt högt. ,14,,0,,cor,1,no,181,199,,,,,,,,,,,,,0,16,16,16,,,,,,,,,,,,,,,,,,,,,,,,,,,,,,,,,,,,,,,,,,,,,,,,,,,,,,,,,,,,,,,,,,,,,,,,,,,,,,,,,,,,,,,,,,,,,699.5557236566947,None,700.0564889320531,None,700.0564889320531,None,left,1,4.875535628603757,700.0564889320531,None,,,,,,,,,,,,,704.9470988173834,None,,,,,,,,,,,,,,,,,,,,,,,,,,,,,,,,,689.064486797236,None,689.064486797236,None,689.5645663396872,None,699.0663079344877,699.0663079344877,0.009882347732855123,None,699.0663079344877,699.0663079344877,706.4476670006593,None,706.4476670006593,None,None,0.007971083753545827,None,,026,001,2021_Jan_22_1035,test7,3.2.4,99.70426084383618,
160,6,Det svenska landslaget spelade en historisk match som de öldrickande gubbarna i restaurangen inte skulle glömma.,14,,15,,cor,1,no,161,162,,,,,,,,,,,,,0,17,17,17,,,,,,,,,,,,,,,,,,,,,,,,,,,,,,,,,,,,,,,,,,,,,,,,,,,,,,,,,,,,,,,,,,,,,,,,,,,,,,,,,,,,,,,,,,,,,715.9387016362653,None,716.4394755714866,None,716.4394755714866,None,left,1,1.1164305838155997,716.4394755714866,None,,,,,,,,,,,,,717.5696509625923,None,,,,,,,,,,,,,,,,,,,,,,,,,,,,,,,,,706.4576760389909,None,706.4576760389909,None,706.9577376202442,None,715.4492766127232,715.4492766127232,0.00988363067699538,None,715.4492766127232,715.4492766127232,719.0699612743724,None,719.0699612743724,None,None,0.007757473783385649,None,,026,001,2021_Jan_22_1035,test7,3.2.4,99.70426084383618,
150,112,Hyresgästen påpekade problemen men hyresvärden kunde inte åtgärda dem.  ,6,,7,,cor,1,no,155,156,,,,,,,,,,,,,0,18,18,18,,,,,,,,,,,,,,,,,,,,,,,,,,,,,,,,,,,,,,,,,,,,,,,,,,,,,,,,,,,,,,,,,,,,,,,,,,,,,,,,,,,,,,,,,,,,,725.070384805852,None,725.5711542507743,None,725.5711542507743,None,left,1,2.9765356183406766,725.5711542507743,None,,,,,,,,,,,,,728.5613945844425,None,,,,,,,,,,,,,,,,,,,,,,,,,,,,,,,,,719.0799780103607,None,719.0799780103607,None,719.5800283658646,None,724.5809822338088,724.5809822338088,0.00988074405631778,None,724.5809822338088,724.5809822338088,730.0619534663833,None,730.0619534663833,None,None,0.008308818435580179,None,,026,001,2021_Jan_22_1035,test7,3.2.4,99.70426084383618,
140,13,Politiker fattar ofta beslut utan att involverar befolkningen.,3,,4,,inc,1,no,131,132,,,,,,,,,,,,,0,19,19,19,,,,,,,,,,,,,,,,,,,,,,,,,,,,,,,,,,,,,,,,,,,,,,,,,,,,,,,,,,,,,,,,,,,,,,,,,,,,,,,,,,,,,,,,,,,,,735.5623000212972,None,736.0630784468185,None,736.0630784468185,None,left,0,2.108496865770576,736.0630784468185,None,,,,,,,,,,,,,738.1832112827124,None,,,,,,,,,,,,,,,,,,,,,,,,,,,,,,,,,730.0719038100833,None,730.0719038100833,None,730.5720195956683,None,735.0728759599624,735.0728759599624,0.00988074405631778,None,735.0728759599624,735.0728759599624,739.6837313556348,None,739.6837313556348,None,None,0.0076808179528597975,None,,026,001,2021_Jan_22_1035,test7,3.2.4,99.70426084383618,
170,52,Klimatet är väldigt stabilt vid ekvatorn.  ,4,,0,,cor,1,no,173,199,,,,,,,,,,,,,0,20,20,20,,,,,,,,,,,,,,,,,,,,,,,,,,,,,,,,,,,,,,,,,,,,,,,,,,,,,,,,,,,,,,,,,,,,,,,,,,,,,,,,,,,,,,,,,,,,,744.1838598102786,None,744.6846350284432,None,744.6846350284432,None,left,1,1.118842195473917,744.6846350284432,None,,,,,,,,,,,,,745.8145993754633,None,,,,,,,,,,,,,,,,,,,,,,,,,,,,,,,,,739.6937445635303,None,739.6937445635303,None,740.1938221815672,None,743.6944357489438,743.6944357489438,0.00987881964101689,None,743.6944357489438,743.6944357489438,747.3151319570784,None,747.3151319570784,None,None,0.007753945691547415,None,,026,001,2021_Jan_22_1035,test7,3.2.4,99.70426084383618,
130,6,Slaktare säljer ofta kött från den omedelbara omgivningen.,3,,4,,cor,1,no,131,132,,,,,,,,,,,,,0,21,21,21,,,,,,,,,,,,,,,,,,,,,,,,,,,,,,,,,,,,,,,,,,,,,,,,,,,,,,,,,,,,,,,,,,,,,,,,,,,,,,,,,,,,,,,,,,,,,752.815444514009,None,753.3161995258242,None,753.3161995258242,None,left,1,3.119093652256197,753.3161995258242,None,,,,,,,,,,,,,756.446536888453,None,,,,,,,,,,,,,,,,,,,,,,,,,,,,,,,,,747.3251336184885,None,747.3251336184885,None,747.8252073876974,None,752.3260352065154,752.3260352065154,0.00988427214724652,None,752.3260352065154,752.3260352065154,757.9470149450003,None,757.9470149450003,None,None,0.008211956255763653,None,,026,001,2021_Jan_22_1035,test7,3.2.4,99.70426084383618,
150,56,Avtalen omfattade material men förlagen har inte ägt rättigheterna till dem. ,6,,7,,cor,1,no,155,156,,,,,,,,,,,,,0,22,22,22,,,,,,,,,,,,,,,,,,,,,,,,,,,,,,,,,,,,,,,,,,,,,,,,,,,,,,,,,,,,,,,,,,,,,,,,,,,,,,,,,,,,,,,,,,,,,764.9476434265862,None,765.4484048531158,None,765.4484048531158,None,right,0,3.586634238150509,765.4484048531158,None,,,,,,,,,,,,,769.0488159721244,None,,,,,,,,,,,,,,,,,,,,,,,,,,,,,,,,,757.9570281528959,None,757.9570281528959,None,758.4570685655935,None,764.4582607401553,764.4582607401553,0.009877857433821191,None,764.4582607401553,764.4582607401553,770.5493296303325,None,770.5493296303325,None,None,0.008195919471290836,None,,026,001,2021_Jan_22_1035,test7,3.2.4,99.70426084383618,
170,102,Bilden var väldigt ful och behövde tas ned. ,4,,0,,cor,1,no,171,199,,,,,,,,,,,,,0,23,23,23,,,,,,,,,,,,,,,,,,,,,,,,,,,,,,,,,,,,,,,,,,,,,,,,,,,,,,,,,,,,,,,,,,,,,,,,,,,,,,,,,,,,,,,,,,,,,776.049660469198,None,776.550451403411,None,776.550451403411,None,left,1,2.4205941821110173,776.550451403411,None,,,,,,,,,,,,,778.9807295582314,None,,,,,,,,,,,,,,,,,,,,,,,,,,,,,,,,,770.5593316124796,None,770.5593316124796,None,771.0594185318514,None,775.5602716887888,775.5602716887888,0.009879781849122082,None,775.5602716887888,775.5602716887888,780.4811829181303,None,780.4811829181303,None,None,0.008619932055808022,None,,026,001,2021_Jan_22_1035,test7,3.2.4,99.70426084383618,
170,69,Gungan var för instabilt för barnen.  ,4,,0,,inc,1,no,172,199,,,,,,,,,,,,,0,24,24,24,,,,,,,,,,,,,,,,,,,,,,,,,,,,,,,,,,,,,,,,,,,,,,,,,,,,,,,,,,,,,,,,,,,,,,,,,,,,,,,,,,,,,,,,,,,,,784.981324843674,None,785.4820958922737,None,785.4820958922737,None,left,0,0.8246916447069452,785.4820958922737,None,,,,,,,,,,,,,786.3222097919324,None,,,,,,,,,,,,,,,,,,,,,,,,,,,,,,,,,780.4911679012857,None,780.4911679012857,None,780.9912625183142,None,784.4918792930475,784.4918792930475,0.009877215963570052,None,784.4918792930475,784.4918792930475,787.8225210659207,None,787.8225210659207,None,None,0.00865521298146632,None,,026,001,2021_Jan_22_1035,test7,3.2.4,99.70426084383618,
160,30,Den torra sommaren orsakade en kraftig aspblomning som de flesta invånarna i de södra stadsdelarna inte hade upplevt förut.,16,,17,,cor,1,no,161,162,,,,,,,,,,,,,0,25,25,25,,,,,,,,,,,,,,,,,,,,,,,,,,,,,,,,,,,,,,,,,,,,,,,,,,,,,,,,,,,,,,,,,,,,,,,,,,,,,,,,,,,,,,,,,,,,,798.8238519586685,None,799.3246326293402,None,799.3246326293402,None,right,0,1.157958799575681,799.3246326293402,None,,,,,,,,,,,,,800.4945423614872,None,,,,,,,,,,,,,,,,,,,,,,,,,,,,,,,,,787.8325201614452,None,787.8325201614452,None,788.3326009868397,None,798.3344275765985,798.3344275765985,0.009882347733764618,None,798.3344275765985,798.3344275765985,801.9951034885785,None,801.9951034885785,None,None,0.008664193581353175,None,,026,001,2021_Jan_22_1035,test7,3.2.4,99.70426084383618,
160,44,Dramaserien från Syrien återuppväckte gamla minnen från arabiska kontakter som den pensionerade socialarbetaren på det lilla kontoret inte hade förutsett.,18,,19,,cor,1,no,161,162,,,,,,,,,,,,,0,26,26,26,,,,,,,,,,,,,,,,,,,,,,,,,,,,,,,,,,,,,,,,,,,,,,,,,,,,,,,,,,,,,,,,,,,,,,,,,,,,,,,,,,,,,,,,,,,,,813.4967663427669,None,813.9973058201986,None,813.9973058201986,None,right,0,2.50900144715888,813.9973058201986,None,,,,,,,,,,,,,816.5177293067745,None,,,,,,,,,,,,,,,,,,,,,,,,,,,,,,,,,802.005097773068,None,802.005097773068,None,802.5051936730397,None,813.0071139176198,813.0071139176198,0.009885555091386777,None,813.0071139176198,813.0071139176198,818.0180316001629,None,818.0180316001629,None,None,0.0078036597224127036,None,,026,001,2021_Jan_22_1035,test7,3.2.4,99.70426084383618,
170,74,Duschen blev nyligen installerad i det nya huset. ,4,,0,,cor,1,no,171,199,,,,,,,,,,,,,0,27,27,27,,,,,,,,,,,,,,,,,,,,,,,,,,,,,,,,,,,,,,,,,,,,,,,,,,,,,,,,,,,,,,,,,,,,,,,,,,,,,,,,,,,,,,,,,,,,,823.5183755891912,None,824.0191212996724,None,824.0191212996724,None,left,1,1.6550827626379032,824.0191212996724,None,,,,,,,,,,,,,825.6896375430106,None,,,,,,,,,,,,,,,,,,,,,,,,,,,,,,,,,818.0280329408388,None,818.0280329408388,None,818.528089711056,None,823.0289351703368,823.0289351703368,0.009882026998639049,None,823.0289351703368,823.0289351703368,827.1896620792909,None,827.1896620792909,None,None,0.008071474025200587,None,,026,001,2021_Jan_22_1035,test7,3.2.4,99.70426084383618,
180,49,Ålen som tidigt rödlistades på grund av det nära förestående utrotningshotet är fortfarande vanligt som julmat.  ,14,,0,,inc,1,no,182,199,,,,,,,,,,,,,0,28,28,28,,,,,,,,,,,,,,,,,,,,,,,,,,,,,,,,,,,,,,,,,,,,,,,,,,,,,,,,,,,,,,,,,,,,,,,,,,,,,,,,,,,,,,,,,,,,,836.6907392701087,None,837.1915292421145,None,837.1915292421145,None,left,0,4.362380974985172,837.1915292421145,None,,,,,,,,,,,,,841.5723063333753,None,,,,,,,,,,,,,,,,,,,,,,,,,,,,,,,,,827.1997051156059,None,827.1997051156059,None,827.6998103169126,None,836.2013415090996,836.2013415090996,0.009880744054498791,None,836.2013415090996,836.2013415090996,843.0725839301153,None,843.0725839301153,None,None,0.008327421105605026,None,,026,001,2021_Jan_22_1035,test7,3.2.4,99.70426084383618,
160,49,Båtens praktfulla segel skymde den fantastiska stranden som den fullständigt utmattade seglaren i fören hade inte sett på flera år.,15,,16,,inc,1,no,163,164,,,,,,,,,,,,,0,29,29,29,,,,,,,,,,,,,,,,,,,,,,,,,,,,,,,,,,,,,,,,,,,,,,,,,,,,,,,,,,,,,,,,,,,,,,,,,,,,,,,,,,,,,,,,,,,,,854.5639925435371,None,855.064755253009,None,855.064755253009,None,right,1,1.1850452493918056,855.064755253009,None,,,,,,,,,,,,,856.2648452514441,None,,,,,,,,,,,,,,,,,,,,,,,,,,,,,,,,,843.0826125333242,None,843.0826125333242,None,843.5826907928331,None,854.074608894899,854.074608894899,0.009876895226625493,None,854.074608894899,854.074608894899,857.765280008673,None,857.765280008673,None,None,0.00845988494620542,None,,026,001,2021_Jan_22_1035,test7,3.2.4,99.70426084383618,
150,13,Galleristen föredrog färger som målaren kunde inte använda.  ,6,,7,,inc,1,no,153,154,,,,,,,,,,,,,0,30,30,30,,,,,,,,,,,,,,,,,,,,,,,,,,,,,,,,,,,,,,,,,,,,,,,,,,,,,,,,,,,,,,,,,,,,,,,,,,,,,,,,,,,,,,,,,,,,,863.2656195074014,None,863.7663241637138,None,863.7663241637138,None,right,1,0.9712226316232773,863.7663241637138,None,,,,,,,,,,,,,864.7562344603557,None,,,,,,,,,,,,,,,,,,,,,,,,,,,,,,,,,857.7752512001935,None,857.7752512001935,None,858.275369230927,None,862.7762047474016,862.7762047474016,0.009882026997729554,None,862.7762047474016,862.7762047474016,866.2568350379365,None,866.2568350379365,None,None,0.0076448955542218755,None,,026,001,2021_Jan_22_1035,test7,3.2.4,99.70426084383618,
180,4,Rummet som hade lånats ut till ett yngre par på genomresa var fruktansvärt stökigt när de åkte. ,14,,0,,cor,1,no,181,199,,,,,,,,,,,,,0,31,31,31,,,,,,,,,,,,,,,,,,,,,,,,,,,,,,,,,,,,,,,,,,,,,,,,,,,,,,,,,,,,,,,,,,,,,,,,,,,,,,,,,,,,,,,,,,,,,876.2579773380994,None,876.7587718004052,None,876.7587718004052,None,left,1,1.5065946465365414,876.7587718004052,None,,,,,,,,,,,,,878.2787574827635,None,,,,,,,,,,,,,,,,,,,,,,,,,,,,,,,,,866.2668354164052,None,866.2668354164052,None,866.7668976391287,None,875.7685702757562,875.7685702757562,0.009876574492409418,None,875.7685702757562,875.7685702757562,879.7793028938054,None,879.7793028938054,None,None,0.00872962366156571,None,,026,001,2021_Jan_22_1035,test7,3.2.4,99.70426084383618,
170,97,Bänken är ganska nymålat och ser bra ut. ,4,,0,,inc,1,no,172,199,,,,,,,,,,,,,0,32,32,32,,,,,,,,,,,,,,,,,,,,,,,,,,,,,,,,,,,,,,,,,,,,,,,,,,,,,,,,,,,,,,,,,,,,,,,,,,,,,,,,,,,,,,,,,,,,,885.279615450736,None,885.7804002909716,None,885.7804002909716,None,left,0,1.7487882605610139,885.7804002909716,None,,,,,,,,,,,,,887.5407222069698,None,,,,,,,,,,,,,,,,,,,,,,,,,,,,,,,,,879.7892615766341,None,879.7892615766341,None,880.2894030210737,None,884.790172465996,884.790172465996,0.009880102583338157,None,884.790172465996,884.790172465996,889.0409892194325,None,889.0409892194325,None,None,0.007862675090109406,None,,026,001,2021_Jan_22_1035,test7,3.2.4,99.70426084383618,
130,34,Matematiker löser gärna problem som intresserar allmänheten.,3,,4,,cor,1,no,133,134,,,,,,,,,,,,,0,33,33,33,,,,,,,,,,,,,,,,,,,,,,,,,,,,,,,,,,,,,,,,,,,,,,,,,,,,,,,,,,,,,,,,,,,,,,,,,,,,,,,,,,,,,,,,,,,,,894.0412264034758,None,894.5420009801683,None,894.5420009801683,None,left,1,1.0430225233430974,894.5420009801683,None,,,,,,,,,,,,,895.6018919556927,None,,,,,,,,,,,,,,,,,,,,,,,,,,,,,,,,,889.051015898227,None,889.051015898227,None,889.5510672159371,None,893.5518129264183,893.5518129264183,0.009881706263513479,None,893.5518129264183,893.5518129264183,897.102457252347,None,897.102457252347,None,None,0.008015986750251614,None,,026,001,2021_Jan_22_1035,test7,3.2.4,99.70426084383618,
140,75,Turister besöker ofta städer som de läsa om på bloggar.,3,,4,,inc,1,no,137,138,,,,,,,,,,,,,0,34,34,34,,,,,,,,,,,,,,,,,,,,,,,,,,,,,,,,,,,,,,,,,,,,,,,,,,,,,,,,,,,,,,,,,,,,,,,,,,,,,,,,,,,,,,,,,,,,,903.6029795704198,None,904.1037416384206,None,904.1037416384206,None,right,1,1.1052160603903758,904.1037416384206,None,,,,,,,,,,,,,905.2238725499001,None,,,,,,,,,,,,,,,,,,,,,,,,,,,,,,,,,897.1124515368374,None,897.1124515368374,None,897.6125503234298,None,903.113564489684,903.113564489684,0.009879781848212588,None,903.113564489684,903.113564489684,906.7242168596645,None,906.7242168596645,None,None,0.00837072042395448,None,,026,001,2021_Jan_22_1035,test7,3.2.4,99.70426084383618,
170,116,Riset blir något klibbigt vid överkokning.  ,4,,0,,cor,1,no,173,199,,,,,,,,,,,,,0,35,35,35,,,,,,,,,,,,,,,,,,,,,,,,,,,,,,,,,,,,,,,,,,,,,,,,,,,,,,,,,,,,,,,,,,,,,,,,,,,,,,,,,,,,,,,,,,,,,911.2243700109566,None,911.7251323996934,None,911.7251323996934,None,left,1,1.9235600250422067,911.7251323996934,None,,,,,,,,,,,,,913.6654717123947,None,,,,,,,,,,,,,,,,,,,,,,,,,,,,,,,,,906.734197352519,None,906.734197352519,None,907.2343047989762,None,910.7349571753703,910.7349571753703,0.009881385527478415,None,910.7349571753703,910.7349571753703,915.1657669495985,None,915.1657669495985,None,None,0.0075820313604708645,None,,026,001,2021_Jan_22_1035,test7,3.2.4,99.70426084383618,
150,110,Föraren såg älgen som passageraren inte kunde se.  ,6,,7,,cor,1,no,151,152,,,,,,,,,,,,,0,36,36,36,,,,,,,,,,,,,,,,,,,,,,,,,,,,,,,,,,,,,,,,,,,,,,,,,,,,,,,,,,,,,,,,,,,,,,,,,,,,,,,,,,,,,,,,,,,,,920.6660737332868,None,921.1668556869008,None,921.1668556869008,None,left,1,1.3299324658928526,921.1668556869008,None,,,,,,,,,,,,,922.5075764184858,None,,,,,,,,,,,,,,,,,,,,,,,,,,,,,,,,,915.1757577059961,None,915.1757577059961,None,915.6758580962669,None,920.176617277647,920.176617277647,0.009882347733764618,None,920.176617277647,920.176617277647,924.007382854496,None,924.007382854496,None,None,0.007816809885298426,None,,026,001,2021_Jan_22_1035,test7,3.2.4,99.70426084383618,
150,100,Kirurgen utförde operationen men experterna hade inte trott att den var möjlig.,6,,7,,cor,1,no,155,156,,,,,,,,,,,,,0,37,37,37,,,,,,,,,,,,,,,,,,,,,,,,,,,,,,,,,,,,,,,,,,,,,,,,,,,,,,,,,,,,,,,,,,,,,,,,,,,,,,,,,,,,,,,,,,,,,931.5080709929207,None,932.0088426829925,None,932.0088426829925,None,left,1,1.3758236492540163,932.0088426829925,None,,,,,,,,,,,,,933.3990397814896,None,,,,,,,,,,,,,,,,,,,,,,,,,,,,,,,,,924.0173694413297,None,924.0173694413297,None,924.5174749633725,None,931.0186748355909,931.0186748355909,0.00987593302033929,None,931.0186748355909,931.0186748355909,934.8993779972748,None,934.8993779972748,None,None,0.008387077943552868,None,,026,001,2021_Jan_22_1035,test7,3.2.4,99.70426084383618,
150,23,Politikern säger saker men partiet inte kan hålla med om dem. ,6,,7,,inc,1,no,157,158,,,,,,,,,,,,,0,38,38,38,,,,,,,,,,,,,,,,,,,,,,,,,,,,,,,,,,,,,,,,,,,,,,,,,,,,,,,,,,,,,,,,,,,,,,,,,,,,,,,,,,,,,,,,,,,,,941.8999522745289,None,942.4007220401872,None,942.4007220401872,None,right,1,1.0956257425032163,942.4007220401872,None,,,,,,,,,,,,,943.5106660653946,None,,,,,,,,,,,,,,,,,,,,,,,,,,,,,,,,,934.9093610560158,None,934.9093610560158,None,935.4094447680309,None,941.4105410426218,941.4105410426218,0.009885875826512347,None,941.4105410426218,941.4105410426218,945.0112166082076,None,945.0112166082076,None,None,0.007828677106772375,None,,026,001,2021_Jan_22_1035,test7,3.2.4,99.70426084383618,
140,41,Brevbärare levererar ofta brev och små paketen.,3,,4,,inc,1,no,133,134,,,,,,,,,,,,,0,39,39,39,,,,,,,,,,,,,,,,,,,,,,,,,,,,,,,,,,,,,,,,,,,,,,,,,,,,,,,,,,,,,,,,,,,,,,,,,,,,,,,,,,,,,,,,,,,,,950.0114553959293,None,950.5122229164372,None,950.5122229164372,None,right,1,1.0239140530984514,950.5122229164372,None,,,,,,,,,,,,,951.5522914640687,None,,,,,,,,,,,,,,,,,,,,,,,,,,,,,,,,,945.0211345576026,None,945.0211345576026,None,945.5212994157482,None,949.5220262028233,949.5220262028233,0.00988363067699538,None,949.5220262028233,949.5220262028233,953.0526659229877,None,953.0526659229877,None,None,0.007936765034173732,None,,026,001,2021_Jan_22_1035,test7,3.2.4,99.70426084383618,
160,21,Praktikanten i blomsteraffären vattnade alla gamla orkidéer som den gamla och snart pensionerade ägaren ville inte bry sig om.,15,,16,,inc,1,no,163,164,,,,,,,,,,,,,0,40,40,40,,,,,,,,,,,,,,,,,,,,,,,,,,,,,,,,,,,,,,,,,,,,,,,,,,,,,,,,,,,,,,,,,,,,,,,,,,,,,,,,,,,,,,,,,,,,,964.0540112488425,None,964.5547745997865,None,964.5547745997865,None,right,1,0.8530972804182966,964.5547745997865,None,,,,,,,,,,,,,965.4248910781598,None,,,,,,,,,,,,,,,,,,,,,,,,,,,,,,,,,953.0626765649977,None,953.0626765649977,None,953.562751937885,None,963.564593281485,963.564593281485,0.009882668468890188,None,963.564593281485,963.564593281485,966.9252055595039,None,966.9252055595039,None,None,0.007920407512756356,None,,026,001,2021_Jan_22_1035,test7,3.2.4,99.70426084383618,
150,41,Regeringen tog beslut som folket ville inte acceptera.  ,6,,7,,inc,1,no,153,154,,,,,,,,,,,,,0,41,41,41,,,,,,,,,,,,,,,,,,,,,,,,,,,,,,,,,,,,,,,,,,,,,,,,,,,,,,,,,,,,,,,,,,,,,,,,,,,,,,,,,,,,,,,,,,,,,972.4255341532198,None,972.9263016737268,None,972.9263016737268,None,right,1,1.145795860713406,972.9263016737268,None,,,,,,,,,,,,,974.0862329978008,None,,,,,,,,,,,,,,,,,,,,,,,,,,,,,,,,,966.9352232576994,None,966.9352232576994,None,967.4352970269083,None,971.9361456935458,971.9361456935458,0.009881064790533856,None,971.9361456935458,971.9361456935458,975.5868117653549,None,975.5868117653549,None,None,0.008176354594979784,None,,026,001,2021_Jan_22_1035,test7,3.2.4,99.70426084383618,
150,50,Riksdagen fattar beslut som kommunerna inte kan genomföra.  ,6,,7,,cor,1,no,151,152,,,,,,,,,,,,,0,42,42,42,,,,,,,,,,,,,,,,,,,,,,,,,,,,,,,,,,,,,,,,,,,,,,,,,,,,,,,,,,,,,,,,,,,,,,,,,,,,,,,,,,,,,,,,,,,,,981.0870935316589,None,981.5878886354367,None,981.5878886354367,None,left,1,0.8437619474043458,981.5878886354367,None,,,,,,,,,,,,,982.4480411388431,None,,,,,,,,,,,,,,,,,,,,,,,,,,,,,,,,,975.596799955867,None,975.596799955867,None,976.0968904033316,None,980.5977095622857,980.5977095622857,0.009876574490590428,None,980.5977095622857,980.5977095622857,983.9483293198605,None,983.9483293198605,None,None,0.008351476281859505,None,,026,001,2021_Jan_22_1035,test7,3.2.4,99.70426084383618,
170,11,Konstverket är förmodligen falsk och undersöks därför grundligt. ,4,,0,,inc,1,yes,174,199,,,,,,,,,,,,,0,43,43,43,,,,,,,,,,,,,,,,,,,,,,,,,,,,,,,,,,,,,,,,,,,,,,,,,,,,,,,,,,,,,,,,,,,,,,,,,,,,,,,,,,,,,,,,,,,,,989.4486659319682,None,989.9494302451194,None,989.9494302451194,None,left,0,1.4900953611359,989.9494302451194,None,,,,,,,,,,,,,991.4493795688804,None,,,,,,,,,,,,,,,,,,,,,,,,,,,,,,,,,983.9583046809448,None,983.9583046809448,None,984.4584053919516,None,988.9591979298439,988.9591979298439,0.009882989204015757,None,988.9591979298439,988.9591979298439,992.9507776557557,None,992.9507776557557,None,space,0.007609935364598641,None,138.15892228959092,026,001,2021_Jan_22_1035,test7,3.2.4,99.70426084383618,
150,95,Mostern köpte sparkcyklar men barnen inte får använda dem utan hjälm. ,6,,7,,inc,1,no,157,158,,,,,,,,,,,,,0,44,44,44,,,,,,,,,,,,,,,,,,,,,,,,,,,,,,,,,,,,,,,,,,,,,,,,,,,,,,,,,,,,,,,,,,,,,,,,,,,,,,,,,,,,,,,,,,,,,1138.1157881502277,None,1138.6164998627255,None,1138.6164998627255,None,right,1,0.7248328325576949,1138.6164998627255,None,,,,,,,,,,,,,1139.3563819346264,None,,,,,,,,,,,,,,,,,,,,,,,,,,,,,,,,,1131.1251693484446,None,1131.1251693484446,None,1131.6252203454196,None,1137.6263791634701,1137.6263791634701,0.009882668469799682,None,1137.6263791634701,1137.6263791634701,1140.8569600607093,None,1140.8569600607093,None,None,0.007596785201712919,None,,026,001,2021_Jan_22_1035,test7,3.2.4,99.70426084383618,
140,1,Hönor lägger ofta ägg tidigt på morgon.,3,,4,,inc,1,no,131,132,,,,,,,,,,,,,0,45,45,45,,,,,,,,,,,,,,,,,,,,,,,,,,,,,,,,,,,,,,,,,,,,,,,,,,,,,,,,,,,,,,,,,,,,,,,,,,,,,,,,,,,,,,,,,,,,,1145.8571840945888,None,1146.3579583505461,None,1146.3579583505461,None,left,0,0.8471726507395942,1146.3579583505461,None,,,,,,,,,,,,,1147.217880886462,None,,,,,,,,,,,,,,,,,,,,,,,,,,,,,,,,,1140.8669848150894,None,1140.8669848150894,None,1141.367056659884,None,1145.367769013853,1145.367769013853,0.009881706263513479,None,1145.367769013853,1145.367769013853,1148.7183932617277,None,1148.7183932617277,None,None,0.007715457407357462,None,,026,001,2021_Jan_22_1035,test7,3.2.4,99.70426084383618,
150,9,Företaget tillverkar energibilar som kunderna kan inte köpa.  ,6,,7,,inc,1,no,153,154,,,,,,,,,,,,,0,46,46,46,,,,,,,,,,,,,,,,,,,,,,,,,,,,,,,,,,,,,,,,,,,,,,,,,,,,,,,,,,,,,,,,,,,,,,,,,,,,,,,,,,,,,,,,,,,,,1154.2187427032632,None,1154.7194970736073,None,1154.7194970736073,None,right,1,1.3175087689132852,1154.7194970736073,None,,,,,,,,,,,,,1156.0494446140783,None,,,,,,,,,,,,,,,,,,,,,,,,,,,,,,,,,1148.7283974890242,None,1148.7283974890242,None,1149.2284831254537,None,1153.7293180004572,1153.7293180004572,0.009882668470709177,None,1153.7293180004572,1153.7293180004572,1157.5500198535397,None,1157.5500198535397,None,None,0.007976536259775457,None,,026,001,2021_Jan_22_1035,test7,3.2.4,99.70426084383618,
180,48,Golvet som de små barnen skulle springa runt på i idrottshallen var fruktansvärt slitet efter alla år. ,14,,0,,cor,1,no,181,199,,,,,,,,,,,,,0,47,47,47,,,,,,,,,,,,,,,,,,,,,,,,,,,,,,,,,,,,,,,,,,,,,,,,,,,,,,,,,,,,,,,,,,,,,,,,,,,,,,,,,,,,,,,,,,,,,1167.5411356352752,None,1168.041925286545,None,1168.041925286545,None,left,1,1.394995945901428,1168.041925286545,None,,,,,,,,,,,,,1169.4521401409702,None,,,,,,,,,,,,,,,,,,,,,,,,,,,,,,,,,1157.5599964975663,None,1157.5599964975663,None,1158.060068983832,None,1167.0517365913238,1167.0517365913238,0.009879140376142459,None,1167.0517365913238,1167.0517365913238,1170.9524680932132,None,1170.9524680932132,None,None,0.007883202173616155,None,,026,001,2021_Jan_22_1035,test7,3.2.4,99.70426084383618,
140,29,Mekaniker reparerar ofta bilar och motorcykel.,3,,4,,inc,1,no,133,134,,,,,,,,,,,,,0,48,48,48,,,,,,,,,,,,,,,,,,,,,,,,,,,,,,,,,,,,,,,,,,,,,,,,,,,,,,,,,,,,,,,,,,,,,,,,,,,,,,,,,,,,,,,,,,,,,1175.45258371843,None,1175.9533679171936,None,1175.9533679171936,None,right,1,2.691268163262066,1175.9533679171936,None,,,,,,,,,,,,,1178.654033315458,None,,,,,,,,,,,,,,,,,,,,,,,,,,,,,,,,,1170.9624675094747,None,1170.9624675094747,None,1171.4625268455775,None,1174.963190447722,1174.963190447722,0.009882989205834747,None,1174.963190447722,1174.963190447722,1180.154157921274,None,1180.154157921274,None,None,0.008195919473109825,None,,026,001,2021_Jan_22_1035,test7,3.2.4,99.70426084383618,
150,81,Politiken kräver skatter som ekonomin kan inte klara av.  ,6,,7,,inc,1,no,153,154,,,,,,,,,,,,,0,49,49,49,,,,,,,,,,,,,,,,,,,,,,,,,,,,,,,,,,,,,,,,,,,,,,,,,,,,,,,,,,,,,,,,,,,,,,,,,,,,,,,,,,,,,,,,,,,,,1186.1545500206557,None,1186.6553406341327,None,1186.6553406341327,None,right,1,0.8690894826913791,1186.6553406341327,None,,,,,,,,,,,,,1187.53539831524,None,,,,,,,,,,,,,,,,,,,,,,,,,,,,,,,,,1180.1641679218128,None,1180.1641679218128,None,1180.6642064100952,None,1185.6651416753693,1185.6651416753693,0.009879140377051954,None,1185.6651416753693,1185.6651416753693,1189.0357657179734,None,1189.0357657179734,None,None,0.008560275216950686,None,,026,001,2021_Jan_22_1035,test7,3.2.4,99.70426084383618,
130,8,Bönder mjölkar ofta kor innan de lämnar ladugården.,3,,4,,cor,1,no,131,132,,,,,,,,,,,,,0,50,50,50,,,,,,,,,,,,,,,,,,,,,,,,,,,,,,,,,,,,,,,,,,,,,,,,,,,,,,,,,,,,,,,,,,,,,,,,,,,,,,,,,,,,,,,,,,,,,1194.5360949531596,None,1195.036795760644,None,1195.036795760644,None,left,1,1.607559996818054,1195.036795760644,None,,,,,,,,,,,,,1196.6671424246078,None,,,,,,,,,,,,,,,,,,,,,,,,,,,,,,,,,1189.0457644927628,None,1189.0457644927628,None,1189.545858147585,None,1194.0466712125608,1194.0466712125608,0.00988363067699538,None,1194.0466712125608,1194.0466712125608,1198.1674241909118,None,1198.1674241909118,None,None,0.00901700283975515,None,,026,001,2021_Jan_22_1035,test7,3.2.4,99.70426084383618,
160,34,Den nya medicinen mildrar de flesta typer av huvudvärk som många andra liknande substanser på marknaden inte kan klara av.,17,,18,,cor,1,no,161,162,,,,,,,,,,,,,0,51,51,51,,,,,,,,,,,,,,,,,,,,,,,,,,,,,,,,,,,,,,,,,,,,,,,,,,,,,,,,,,,,,,,,,,,,,,,,,,,,,,,,,,,,,,,,,,,,,1209.6688343053765,None,1210.1696220322328,None,1210.1696220322328,None,left,1,1.2665111526212058,1210.1696220322328,None,,,,,,,,,,,,,1211.4495822738363,None,,,,,,,,,,,,,,,,,,,,,,,,,,,,,,,,,1198.1774098155383,None,1198.1774098155383,None,1198.6775031496245,None,1209.1793762460584,1209.1793762460584,0.009880744054498791,None,1209.1793762460584,1209.1793762460584,1212.9501187042792,None,1212.9501187042792,None,None,0.007824507541954517,None,,026,001,2021_Jan_22_1035,test7,3.2.4,99.70426084383618,
180,27,Folket som såg den nya konservativa ministern på gatan den dagen blev glatt överraskad över färgvalet.  ,14,,0,,inc,1,no,182,199,,,,,,,,,,,,,0,52,52,52,,,,,,,,,,,,,,,,,,,,,,,,,,,,,,,,,,,,,,,,,,,,,,,,,,,,,,,,,,,,,,,,,,,,,,,,,,,,,,,,,,,,,,,,,,,,,1222.451172802127,None,1222.9519162674578,None,1222.9519162674578,None,right,1,1.2039013006478854,1222.9519162674578,None,,,,,,,,,,,,,1224.1721282609196,None,,,,,,,,,,,,,,,,,,,,,,,,,,,,,,,,,1212.9601315914397,None,1212.9601315914397,None,1213.460224925525,None,1221.9617734374397,1221.9617734374397,0.00988395141212095,None,1221.9617734374397,1221.9617734374397,1225.6724523643356,None,1225.6724523643356,None,None,0.00764200893445377,None,,026,001,2021_Jan_22_1035,test7,3.2.4,99.70426084383618,
150,108,Fällan fångade djuret men jägaren ville inte ta hem det. ,6,,7,,cor,1,no,155,156,,,,,,,,,,,,,0,53,53,53,,,,,,,,,,,,,,,,,,,,,,,,,,,,,,,,,,,,,,,,,,,,,,,,,,,,,,,,,,,,,,,,,,,,,,,,,,,,,,,,,,,,,,,,,,,,,1232.1729573626799,None,1232.6737191099455,None,1232.6737191099455,None,left,1,1.6020394941106133,1232.6737191099455,None,,,,,,,,,,,,,1234.293974787609,None,,,,,,,,,,,,,,,,,,,,,,,,,,,,,,,,,1225.682455629425,None,1225.682455629425,None,1226.1825425487968,None,1231.6835361879666,1231.6835361879666,0.009881385527478415,None,1231.6835361879666,1231.6835361879666,1235.794248535521,None,1235.794248535521,None,None,0.008046135905715346,None,,026,001,2021_Jan_22_1035,test7,3.2.4,99.70426084383618,
170,114,Sjön är ganska förorenad till följd av ansvarslös båttrafik. ,4,,0,,cor,1,no,171,199,,,,,,,,,,,,,0,54,54,54,,,,,,,,,,,,,,,,,,,,,,,,,,,,,,,,,,,,,,,,,,,,,,,,,,,,,,,,,,,,,,,,,,,,,,,,,,,,,,,,,,,,,,,,,,,,,1241.794710876019,None,1242.2954947540475,None,1242.2954947540475,None,left,1,0.756092374444961,1242.2954947540475,None,,,,,,,,,,,,,1243.0653117294323,None,,,,,,,,,,,,,,,,,,,,,,,,,,,,,,,,,1235.80423544309,None,1235.80423544309,None,1236.3043983768212,None,1241.305313115011,1241.305313115011,0.009881385525659425,None,1241.305313115011,1241.305313115011,1244.5658917799296,None,1244.5658917799296,None,None,0.008316516093145765,None,,026,001,2021_Jan_22_1035,test7,3.2.4,99.70426084383618,
170,20,Vädret är väldigt varmt för april månad.  ,4,,0,,cor,1,no,173,199,,,,,,,,,,,,,0,55,55,55,,,,,,,,,,,,,,,,,,,,,,,,,,,,,,,,,,,,,,,,,,,,,,,,,,,,,,,,,,,,,,,,,,,,,,,,,,,,,,,,,,,,,,,,,,,,,1249.5661276810297,None,1250.0668907112376,None,1250.0668907112376,None,left,1,1.1205222090229654,1250.0668907112376,None,,,,,,,,,,,,,1251.19692562011,None,,,,,,,,,,,,,,,,,,,,,,,,,,,,,,,,,1244.5758831777985,None,1244.5758831777985,None,1245.0759883791043,None,1249.0767347310566,1249.0767347310566,0.009882026997729554,None,1249.0767347310566,1249.0767347310566,1252.6973661505813,None,1252.6973661505813,None,None,0.008595556142608984,None,,026,001,2021_Jan_22_1035,test7,3.2.4,99.70426084383618,
160,19,Den trötta bagaren köpte fem kilo gammalt mjöl som den elaka mjölnaren söder om staden kunde inte sälja till någon annan.,16,,17,,inc,1,no,163,164,,,,,,,,,,,,,0,56,56,56,,,,,,,,,,,,,,,,,,,,,,,,,,,,,,,,,,,,,,,,,,,,,,,,,,,,,,,,,,,,,,,,,,,,,,,,,,,,,,,,,,,,,,,,,,,,,1264.6888886251727,None,1265.189616695191,None,1265.189616695191,None,right,1,0.6216524815963567,1265.189616695191,None,,,,,,,,,,,,,1265.8297656833338,None,,,,,,,,,,,,,,,,,,,,,,,,,,,,,,,,,1252.7073777547994,None,1252.7073777547994,None,1253.2074698059423,None,1264.1994677711946,1264.1994677711946,0.009883309940960316,None,1264.1994677711946,1264.1994677711946,1267.3300480911098,None,1267.3300480911098,None,None,0.00873507616961433,None,,026,001,2021_Jan_22_1035,test7,3.2.4,99.70426084383618,
160,40,Den trevliga städerskan avlägsnade de nytvättade sängkläderna som gästerna i ett av hotellets finaste rum inte hade efterfrågat.,16,,17,,cor,1,no,161,162,,,,,,,,,,,,,0,57,57,57,,,,,,,,,,,,,,,,,,,,,,,,,,,,,,,,,,,,,,,,,,,,,,,,,,,,,,,,,,,,,,,,,,,,,,,,,,,,,,,,,,,,,,,,,,,,,1277.8212886390284,None,1278.3220523107084,None,1278.3220523107084,None,left,1,1.8650443641608945,1278.3220523107084,None,,,,,,,,,,,,,1280.2020952379735,None,,,,,,,,,,,,,,,,,,,,,,,,,,,,,,,,,1267.340046224428,None,1267.340046224428,None,1267.84014725617,None,1277.3318825388924,1277.3318825388924,0.009883630676085886,None,1277.3318825388924,1277.3318825388924,1281.7026698359628,None,1281.7026698359628,None,None,0.007591974167553417,None,,026,001,2021_Jan_22_1035,test7,3.2.4,99.70426084383618,
140,79,Översättare använder ofta lexikon och olika ordbok.,3,,4,,inc,1,no,137,138,,,,,,,,,,,,,0,58,58,58,,,,,,,,,,,,,,,,,,,,,,,,,,,,,,,,,,,,,,,,,,,,,,,,,,,,,,,,,,,,,,,,,,,,,,,,,,,,,,,,,,,,,,,,,,,,,1286.7128976160357,None,1287.213676362293,None,1287.213676362293,None,right,1,0.8611685940741154,1287.213676362293,None,,,,,,,,,,,,,1288.0935146601869,None,,,,,,,,,,,,,,,,,,,,,,,,,,,,,,,,,1281.7126708559026,None,1281.7126708559026,None,1282.2127564923321,None,1286.2235001757635,1286.2235001757635,0.009876895227534987,None,1286.2235001757635,1286.2235001757635,1289.5941421795656,None,1289.5941421795656,None,None,0.007729890513473947,None,,026,001,2021_Jan_22_1035,test7,3.2.4,99.70426084383618,
180,36,Biobesöket som de alla hade sett fram emot så mycket den här veckan blev ganska tråkigt av någon anledning. ,16,,0,,cor,1,no,181,199,,,,,,,,,,,,,0,59,59,59,,,,,,,,,,,,,,,,,,,,,,,,,,,,,,,,,,,,,,,,,,,,,,,,,,,,,,,,,,,,,,,,,,,,,,,,,,,,,,,,,,,,,,,,,,,,,1300.5954252826969,None,1301.0962101229316,None,1301.0962101229316,None,right,0,1.1224219265177453,1301.0962101229316,None,,,,,,,,,,,,,1302.236145501105,None,,,,,,,,,,,,,,,,,,,,,,,,,,,,,,,,,1289.6041265212498,None,1289.6041265212498,None,1290.1042144028288,None,1300.106042917001,1300.106042917001,0.00988138552656892,None,1300.106042917001,1300.106042917001,1303.7366838559615,None,1303.7366838559615,None,None,0.007699420622884645,None,,026,001,2021_Jan_22_1035,test7,3.2.4,99.70426084383618,
150,27,Tjejen har vänner men föräldrarna inte borde veta om dem. ,6,,7,,inc,1,no,157,158,,,,,,,,,,,,,0,60,60,60,,,,,,,,,,,,,,,,,,,,,,,,,,,,,,,,,,,,,,,,,,,,,,,,,,,,,,,,,,,,,,,,,,,,,,,,,,,,,,,,,,,,,,,,,,,,,1310.2271956923914,None,1310.7279070841532,None,1310.7279070841532,None,right,1,0.5786203361822118,1310.7279070841532,None,,,,,,,,,,,,,1311.3177971102996,None,,,,,,,,,,,,,,,,,,,,,,,,,,,,,,,,,1303.746692252822,None,1303.746692252822,None,1304.2467903979432,None,1309.737805949775,1309.737805949775,0.009882668469799682,None,1309.737805949775,1309.737805949775,1312.8183502189981,None,1312.8183502189981,None,None,0.008007326885490329,None,,026,001,2021_Jan_22_1035,test7,3.2.4,99.70426084383618,
150,40,Nätet sprider information och tidningar kan inte kontrollera detta.  ,6,,7,,cor,1,no,155,156,,,,,,,,,,,,,0,61,61,61,,,,,,,,,,,,,,,,,,,,,,,,,,,,,,,,,,,,,,,,,,,,,,,,,,,,,,,,,,,,,,,,,,,,,,,,,,,,,,,,,,,,,,,,,,,,,1318.8187413561736,None,1319.3195492893783,None,1319.3195492893783,None,left,1,1.7946056747123293,1319.3195492893783,None,,,,,,,,,,,,,1321.1292503893728,None,,,,,,,,,,,,,,,,,,,,,,,,,,,,,,,,,1312.8283563707091,None,1312.8283563707091,None,1313.3284259703541,None,1318.3293711784345,1318.3293711784345,0.009881385525659425,None,1318.3293711784345,1318.3293711784345,1322.6301319314193,None,1322.6301319314193,None,None,0.008399265900152386,None,,026,001,2021_Jan_22_1035,test7,3.2.4,99.70426084383618,
130,46,Idrottare lyfter ofta vikter för att stärka ryggen.,3,,4,,cor,1,no,135,136,,,,,,,,,,,,,0,62,62,62,,,,,,,,,,,,,,,,,,,,,,,,,,,,,,,,,,,,,,,,,,,,,,,,,,,,,,,,,,,,,,,,,,,,,,,,,,,,,,,,,,,,,,,,,,,,,1328.1304768826549,None,1328.6312011038444,None,1328.6312011038444,None,left,1,1.298984679096975,1328.6312011038444,None,,,,,,,,,,,,,1329.9414830561755,None,,,,,,,,,,,,,,,,,,,,,,,,,,,,,,,,,1322.640155082121,None,1322.640155082121,None,1323.1402420014938,None,1327.641066612954,1327.641066612954,0.009883309941869811,None,1327.641066612954,1327.641066612954,1331.4417542382012,None,1331.4417542382012,None,None,0.007648744383914163,None,,026,001,2021_Jan_22_1035,test7,3.2.4,99.70426084383618,
170,16,Fartyget är kraftigt skadat och måste bogseras.  ,4,,0,,cor,1,no,173,199,,,,,,,,,,,,,0,63,63,63,,,,,,,,,,,,,,,,,,,,,,,,,,,,,,,,,,,,,,,,,,,,,,,,,,,,,,,,,,,,,,,,,,,,,,,,,,,,,,,,,,,,,,,,,,,,,1336.4419747439888,None,1336.94276215011,None,1336.94276215011,None,right,0,0.4832989718497629,1336.94276215011,None,,,,,,,,,,,,,1337.4425148628916,None,,,,,,,,,,,,,,,,,,,,,,,,,,,,,,,,,1331.4517533337266,None,1331.4517533337266,None,1331.9518408945705,None,1335.9525391361694,1335.9525391361694,0.00988074405631778,None,1335.9525391361694,1335.9525391361694,1338.9431164026796,None,1338.9431164026796,None,None,0.007708721957897069,None,,026,001,2021_Jan_22_1035,test7,3.2.4,99.70426084383618,
160,24,En polisassistent från förorten arresterade tre misstänkta smugglare som de äldre kollegorna på polisstationen inte hade upptäckt.,15,,16,,cor,1,no,161,162,,,,,,,,,,,,,0,64,64,64,,,,,,,,,,,,,,,,,,,,,,,,,,,,,,,,,,,,,,,,,,,,,,,,,,,,,,,,,,,,,,,,,,,,,,,,,,,,,,,,,,,,,,,,,,,,,1348.9442673627063,None,1349.44506567384,None,1349.44506567384,None,left,1,0.852794826661011,1349.44506567384,None,,,,,,,,,,,,,1350.314866548294,None,,,,,,,,,,,,,,,,,,,,,,,,,,,,,,,,,1338.9531369874967,None,1338.9531369874967,None,1339.453217492155,None,1348.454858696684,1348.454858696684,0.009882026997729554,None,1348.454858696684,1348.454858696684,1351.815481558981,None,1351.815481558981,None,None,0.008688569494552212,None,,026,001,2021_Jan_22_1035,test7,3.2.4,99.70426084383618,
170,111,Huset är alltför stor för endast en person. ,4,,0,,inc,1,no,174,199,,,,,,,,,,,,,0,65,65,65,,,,,,,,,,,,,,,,,,,,,,,,,,,,,,,,,,,,,,,,,,,,,,,,,,,,,,,,,,,,,,,,,,,,,,,,,,,,,,,,,,,,,,,,,,,,,1357.3157893048765,None,1357.81656901334,None,1357.81656901334,None,right,1,0.7931296490642126,1357.81656901334,None,,,,,,,,,,,,,1358.6266873904688,None,,,,,,,,,,,,,,,,,,,,,,,,,,,,,,,,,1351.8254614103644,None,1351.8254614103644,None,1352.325548009001,None,1356.8263674886912,1356.8263674886912,0.00988106479144335,None,1356.8263674886912,1356.8263674886912,1360.1270057206416,None,1360.1270057206416,None,None,0.007738229641290673,None,,026,001,2021_Jan_22_1035,test7,3.2.4,99.70426084383618,
180,40,Fatet som med sina präglade mönster runt kanten såg väldigt inbjudande ut var otroligt kladdigt efter kalaset.  ,15,,0,,cor,1,no,181,199,,,,,,,,,,,,,0,66,66,66,,,,,,,,,,,,,,,,,,,,,,,,,,,,,,,,,,,,,,,,,,,,,,,,,,,,,,,,,,,,,,,,,,,,,,,,,,,,,,,,,,,,,,,,,,,,,1370.1281480208045,None,1370.6289309366257,None,1370.6289309366257,None,right,0,0.7806308999324756,1370.6289309366257,None,,,,,,,,,,,,,1371.418757970282,None,,,,,,,,,,,,,,,,,,,,,,,,,,,,,,,,,1360.1370080235238,None,1360.1370080235238,None,1360.6370872452399,None,1369.6387095263635,1369.6387095263635,0.009881706262603984,None,1369.6387095263635,1369.6387095263635,1372.919331606065,None,1372.919331606065,None,None,0.008686324343216256,None,,026,001,2021_Jan_22_1035,test7,3.2.4,99.70426084383618,
170,66,Kyrkan är helt renoverad och har öppnat igen för besökare.,4,,0,,cor,1,no,171,199,,,,,,,,,,,,,0,67,67,67,,,,,,,,,,,,,,,,,,,,,,,,,,,,,,,,,,,,,,,,,,,,,,,,,,,,,,,,,,,,,,,,,,,,,,,,,,,,,,,,,,,,,,,,,,,,,1379.4198180017402,None,1379.9206121433099,None,1379.9206121433099,None,left,1,1.1288979008495517,1379.9206121433099,None,,,,,,,,,,,,,1381.0608118076925,None,,,,,,,,,,,,,,,,,,,,,,,,,,,,,,,,,1372.9293204380483,None,1372.9293204380483,None,1373.4294150550768,None,1378.9304260139743,1378.9304260139743,0.009879140377961448,None,1378.9304260139743,1378.9304260139743,1382.5610852348686,None,1382.5610852348686,None,None,0.007893144980698708,None,,026,001,2021_Jan_22_1035,test7,3.2.4,99.70426084383618,
130,18,Konstnärer målar ofta tavlor för privata samlingar.,3,,4,,cor,1,no,131,132,,,,,,,,,,,,,0,68,68,68,,,,,,,,,,,,,,,,,,,,,,,,,,,,,,,,,,,,,,,,,,,,,,,,,,,,,,,,,,,,,,,,,,,,,,,,,,,,,,,,,,,,,,,,,,,,,1387.5613211359687,None,1388.0620969956044,None,1388.0620969956044,None,left,1,0.7072449702236554,1388.0620969956044,None,,,,,,,,,,,,,1388.7825511445135,None,,,,,,,,,,,,,,,,,,,,,,,,,,,,,,,,,1382.5710888206931,None,1382.5710888206931,None,1383.071181192572,None,1387.0718621144433,1387.0718621144433,0.009882989204015757,None,1387.0718621144433,1387.0718621144433,1390.2825019115849,None,1390.2825019115849,None,None,0.008005723208043491,None,,026,001,2021_Jan_22_1035,test7,3.2.4,99.70426084383618,
150,1,Pojken älskade hunden som katten ville inte vara nära.  ,6,,7,,inc,1,no,153,154,,,,,,,,,,,,,0,69,69,69,,,,,,,,,,,,,,,,,,,,,,,,,,,,,,,,,,,,,,,,,,,,,,,,,,,,,,,,,,,,,,,,,,,,,,,,,,,,,,,,,,,,,,,,,,,,,1396.2828843888956,None,1396.7836942465146,None,1396.7836942465146,None,right,1,0.6014621698668634,1396.7836942465146,None,,,,,,,,,,,,,1397.4035663242921,None,,,,,,,,,,,,,,,,,,,,,,,,,,,,,,,,,1390.292508384031,None,1390.292508384031,None,1390.7925722104337,None,1395.7934901559802,1395.7934901559802,0.00987881964101689,None,1395.7934901559802,1395.7934901559802,1398.9040617005662,None,1398.9040617005662,None,None,0.008216446556616575,None,,026,001,2021_Jan_22_1035,test7,3.2.4,99.70426084383618,
170,104,Brödet är väldigt torrt och ska slängas.  ,4,,0,,cor,1,no,173,199,,,,,,,,,,,,,0,70,70,70,,,,,,,,,,,,,,,,,,,,,,,,,,,,,,,,,,,,,,,,,,,,,,,,,,,,,,,,,,,,,,,,,,,,,,,,,,,,,,,,,,,,,,,,,,,,,1403.9043052993238,None,1404.4050866114658,None,1404.4050866114658,None,left,1,0.5559975649748594,1404.4050866114658,None,,,,,,,,,,,,,1404.9751837174035,None,,,,,,,,,,,,,,,,,,,,,,,,,,,,,,,,,1398.9140845305328,None,1398.9140845305328,None,1399.4141114723307,None,1403.4148892563808,1403.4148892563808,0.009882347733764618,None,1403.4148892563808,1403.4148892563808,1406.47539909142,None,1406.47539909142,None,None,0.008239539525675355,None,,026,001,2021_Jan_22_1035,test7,3.2.4,99.70426084383618,
170,21,Fästningen är verkligen vackert och besöks av många turister. ,4,,0,,inc,1,no,172,199,,,,,,,,,,,,,0,71,71,71,,,,,,,,,,,,,,,,,,,,,,,,,,,,,,,,,,,,,,,,,,,,,,,,,,,,,,,,,,,,,,,,,,,,,,,,,,,,,,,,,,,,,,,,,,,,,1412.4658682700028,None,1412.966456178524,None,1412.966456178524,None,right,1,0.6024407344593783,1412.966456178524,None,,,,,,,,,,,,,1413.5864491736565,None,,,,,,,,,,,,,,,,,,,,,,,,,,,,,,,,,1406.4853943381167,None,1406.4853943381167,None,1406.985539631385,None,1411.9764342658618,1411.9764342658618,0.009882026998639049,None,1411.9764342658618,1411.9764342658618,1415.087025375325,None,1415.087025375325,None,None,0.008661948430926714,None,,026,001,2021_Jan_22_1035,test7,3.2.4,99.70426084383618,
170,10,Leksaken är väldigt farlig för småbarn.  ,4,,0,,cor,1,no,171,199,,,,,,,,,,,,,0,72,72,72,,,,,,,,,,,,,,,,,,,,,,,,,,,,,,,,,,,,,,,,,,,,,,,,,,,,,,,,,,,,,,,,,,,,,,,,,,,,,,,,,,,,,,,,,,,,,1419.5771699693887,None,1420.07794839491,None,1420.07794839491,None,right,0,1.306819931285645,1420.07794839491,None,,,,,,,,,,,,,1421.3978626815042,None,,,,,,,,,,,,,,,,,,,,,,,,,,,,,,,,,1415.0970315270351,None,1415.0970315270351,None,1415.5971206915574,None,1419.0877526435033,1419.0877526435033,0.009882026998639049,None,1419.0877526435033,1419.0877526435033,1422.898459089521,None,1422.898459089521,None,None,0.007602558443977614,None,,026,001,2021_Jan_22_1035,test7,3.2.4,99.70426084383618,
160,37,Den tuffa bostadsmarknaden ställde väldigt höga krav som många unga bostadssökande utan hjälp från föräldrar kunde inte klara av.,16,,17,,inc,1,no,163,164,,,,,,,,,,,,,0,73,73,73,,,,,,,,,,,,,,,,,,,,,,,,,,,,,,,,,,,,,,,,,,,,,,,,,,,,,,,,,,,,,,,,,,,,,,,,,,,,,,,,,,,,,,,,,,,,,1433.8997733040142,None,1434.4005212596448,None,1434.4005212596448,None,right,1,1.120063236248825,1434.4005212596448,None,,,,,,,,,,,,,1435.530776834672,None,,,,,,,,,,,,,,,,,,,,,,,,,,,,,,,,,1422.908446638562,None,1422.908446638562,None,1423.4085422177977,None,1433.4103396206083,1433.4103396206083,0.009881385525659425,None,1433.4103396206083,1433.4103396206083,1437.0310345457997,None,1437.0310345457997,None,None,0.0076224440563237295,None,,026,001,2021_Jan_22_1035,test7,3.2.4,99.70426084383618,
180,11,Lyset som satt på den fina gamla damcykeln med den mjuka sadeln var väldigt stark och hade ett klart sken.,15,,0,,inc,1,no,182,199,,,,,,,,,,,,,0,74,74,74,,,,,,,,,,,,,,,,,,,,,,,,,,,,,,,,,,,,,,,,,,,,,,,,,,,,,,,,,,,,,,,,,,,,,,,,,,,,,,,,,,,,,,,,,,,,,1448.532437604079,None,1449.033201596494,None,1449.033201596494,None,left,0,2.1510992253588483,1449.033201596494,None,,,,,,,,,,,,,1451.2032874125352,None,,,,,,,,,,,,,,,,,,,,,,,,,,,,,,,,,1437.0410317169108,None,1437.0410317169108,None,1437.5411189570186,None,1448.043045616313,1448.043045616313,0.009879461113087018,None,1448.043045616313,1448.043045616313,1452.7039001780727,None,1452.7039001780727,None,None,0.007861071411753073,None,,026,001,2021_Jan_22_1035,test7,3.2.4,99.70426084383618,
170,35,Strandbadet var helt tom och solen strålade.  ,4,,0,,inc,1,no,174,199,,,,,,,,,,,,,0,75,75,75,,,,,,,,,,,,,,,,,,,,,,,,,,,,,,,,,,,,,,,,,,,,,,,,,,,,,,,,,,,,,,,,,,,,,,,,,,,,,,,,,,,,,,,,,,,,,1457.7041264571026,None,1458.2048051338243,None,1458.2048051338243,None,right,1,0.5474432233686457,1458.2048051338243,None,,,,,,,,,,,,,1458.765386011819,None,,,,,,,,,,,,,,,,,,,,,,,,,,,,,,,,,1452.7138992735981,None,1452.7138992735981,None,1453.2139807404637,None,1457.2147229228513,1457.2147229228513,0.009881064790533856,None,1457.2147229228513,1457.2147229228513,1460.2652880270648,None,1460.2652880270648,None,None,0.007943821218759695,None,,026,001,2021_Jan_22_1035,test7,3.2.4,99.70426084383618,
150,47,Djuren fick rättigheter men djurrättsaktivisterna inte hade krävt dessa från början. ,6,,7,,inc,1,no,157,158,,,,,,,,,,,,,0,76,76,76,,,,,,,,,,,,,,,,,,,,,,,,,,,,,,,,,,,,,,,,,,,,,,,,,,,,,,,,,,,,,,,,,,,,,,,,,,,,,,,,,,,,,,,,,,,,,1467.2658693605044,None,1467.7666391261619,None,1467.7666391261619,None,right,1,0.7855519476352129,1467.7666391261619,None,,,,,,,,,,,,,1468.566577993939,None,,,,,,,,,,,,,,,,,,,,,,,,,,,,,,,,,1460.2752730102202,None,1460.2752730102202,None,1460.7753605710632,None,1466.7764581285974,1466.7764581285974,0.00987849890589132,None,1466.7764581285974,1466.7764581285974,1470.0670598993152,None,1470.0670598993152,None,None,0.008308818436489673,None,,026,001,2021_Jan_22_1035,test7,3.2.4,99.70426084383618,
170,24,Vinet är ganska dyrt att importera.  ,4,,0,,cor,1,no,173,199,,,,,,,,,,,,,0,77,77,77,,,,,,,,,,,,,,,,,,,,,,,,,,,,,,,,,,,,,,,,,,,,,,,,,,,,,,,,,,,,,,,,,,,,,,,,,,,,,,,,,,,,,,,,,,,,,1474.567193164994,None,1475.0679587610875,None,1475.0679587610875,None,left,1,0.9560264953333899,1475.0679587610875,None,,,,,,,,,,,,,1476.0381438127524,None,,,,,,,,,,,,,,,,,,,,,,,,,,,,,,,,,1470.077050976448,None,1470.077050976448,None,1470.5771430275909,None,1474.0777979698714,1474.0777979698714,0.009882026998639049,None,1474.0777979698714,1474.0777979698714,1477.5384316730347,None,1477.5384316730347,None,None,0.008401511049669352,None,,026,001,2021_Jan_22_1035,test7,3.2.4,99.70426084383618,
150,74,Fotografen publicerade bilder som tjejen inte hade godkänt.  ,6,,7,,cor,1,no,151,152,,,,,,,,,,,,,0,78,78,78,,,,,,,,,,,,,,,,,,,,,,,,,,,,,,,,,,,,,,,,,,,,,,,,,,,,,,,,,,,,,,,,,,,,,,,,,,,,,,,,,,,,,,,,,,,,,1483.0387500032075,None,1483.5394889782392,None,1483.5394889782392,None,left,1,0.7963414962705428,1483.5394889782392,None,,,,,,,,,,,,,1484.3496365423152,None,,,,,,,,,,,,,,,,,,,,,,,,,,,,,,,,,1477.5484195428107,None,1477.5484195428107,None,1478.0485064621826,None,1482.5493390920356,1482.5493390920356,0.009879781848212588,None,1482.5493390920356,1482.5493390920356,1485.8499388357036,None,1485.8499388357036,None,None,0.008742132353290799,None,,026,001,2021_Jan_22_1035,test7,3.2.4,99.70426084383618,
160,41,Biljardspelarna från Tyskland hade en vinnande strategi som motståndarna från den andra sidan av Atlanten kunde inte överträffa.,16,,17,,inc,1,no,163,164,,,,,,,,,,,,,0,79,79,79,,,,,,,,,,,,,,,,,,,,,,,,,,,,,,,,,,,,,,,,,,,,,,,,,,,,,,,,,,,,,,,,,,,,,,,,,,,,,,,,,,,,,,,,,,,,,1496.351181205402,None,1496.851953216209,None,1496.851953216209,None,right,1,1.2358032761230788,1496.851953216209,None,,,,,,,,,,,,,1498.1021097352268,None,,,,,,,,,,,,,,,,,,,,,,,,,,,,,,,,,1485.8599344031363,None,1485.8599344031363,None,1486.360025812808,None,1495.8617815199796,1495.8617815199796,0.009882026998639049,None,1495.8617815199796,1495.8617815199796,1499.6024367252626,None,1499.6024367252626,None,None,0.008647836059935798,None,,026,001,2021_Jan_22_1035,test7,3.2.4,99.70426084383618,
170,83,Materialet är väldigt eftertraktad inom industrin.  ,4,,0,,inc,1,no,174,199,,,,,,,,,,,,,0,80,80,80,,,,,,,,,,,,,,,,,,,,,,,,,,,,,,,,,,,,,,,,,,,,,,,,,,,,,,,,,,,,,,,,,,,,,,,,,,,,,,,,,,,,,,,,,,,,,1504.1025998193618,None,1504.6033647739841,None,1504.6033647739841,None,left,0,0.9401112696250493,1504.6033647739841,None,,,,,,,,,,,,,1505.553268424983,None,,,,,,,,,,,,,,,,,,,,,,,,,,,,,,,,,1499.6124242743035,None,1499.6124242743035,None,1500.1125362110597,None,1503.6131873045115,1503.6131873045115,0.009881706262603984,None,1503.6131873045115,1503.6131873045115,1507.053818967796,None,1507.053818967796,None,None,0.00757016413990641,None,,026,001,2021_Jan_22_1035,test7,3.2.4,99.70426084383618,
150,83,Sekreteraren skrev brev men brevbäraren inte hade tagit med sig dem. ,6,,7,,inc,1,no,157,158,,,,,,,,,,,,,0,81,81,81,,,,,,,,,,,,,,,,,,,,,,,,,,,,,,,,,,,,,,,,,,,,,,,,,,,,,,,,,,,,,,,,,,,,,,,,,,,,,,,,,,,,,,,,,,,,,1514.05441184772,None,1514.5551806511703,None,1514.5551806511703,None,right,1,0.556169800040152,1514.5551806511703,None,,,,,,,,,,,,,1515.1252556263453,None,,,,,,,,,,,,,,,,,,,,,,,,,,,,,,,,,1507.063816138907,None,1507.063816138907,None,1507.5638937569438,None,1513.565000295077,1513.565000295077,0.00988202699682006,None,1513.565000295077,1513.565000295077,1516.6255707491614,None,1516.6255707491614,None,None,0.007943179746689566,None,,026,001,2021_Jan_22_1035,test7,3.2.4,99.70426084383618,
170,23,Oljudet är för hög för små barn.  ,4,,0,,inc,1,no,174,199,,,,,,,,,,,,,0,82,82,82,,,,,,,,,,,,,,,,,,,,,,,,,,,,,,,,,,,,,,,,,,,,,,,,,,,,,,,,,,,,,,,,,,,,,,,,,,,,,,,,,,,,,,,,,,,,,1521.6257947830418,None,1522.1265709634135,None,1522.1265709634135,None,right,1,0.528652922927904,1522.1265709634135,None,,,,,,,,,,,,,1522.6666218705823,None,,,,,,,,,,,,,,,,,,,,,,,,,,,,,,,,,1516.6355602226167,None,1516.6355602226167,None,1517.1356622165658,None,1521.1363816267203,1521.1363816267203,0.009879461113087018,None,1521.1363816267203,1521.1363816267203,1524.1669344275128,None,1524.1669344275128,None,None,0.007993214515408908,None,,026,001,2021_Jan_22_1035,test7,3.2.4,99.70426084383618,
150,86,Sjön lagrar vatten som bönderna inte får använda.  ,6,,7,,cor,1,no,151,152,,,,,,,,,,,,,0,83,83,83,,,,,,,,,,,,,,,,,,,,,,,,,,,,,,,,,,,,,,,,,,,,,,,,,,,,,,,,,,,,,,,,,,,,,,,,,,,,,,,,,,,,,,,,,,,,,1529.6672296647157,None,1530.1680337490925,None,1530.1680337490925,None,right,0,0.9829929900006391,1530.1680337490925,None,,,,,,,,,,,,,1531.167976337404,None,,,,,,,,,,,,,,,,,,,,,,,,,,,,,,,,,1524.1769447487868,None,1524.1769447487868,None,1524.6769293534735,None,1529.1778511478487,1529.1778511478487,0.009882347733764618,None,1529.1778511478487,1529.1778511478487,1532.6685150129965,None,1532.6685150129965,None,None,0.00823953952658485,None,,026,001,2021_Jan_22_1035,test7,3.2.4,99.70426084383618,
180,42,Vasen som hade prytt det lilla vardagsrummet sedan många år tillbaka var nu sprucken men fortfarande mycket omtyckt. ,14,,0,,cor,1,no,181,199,,,,,,,,,,,,,0,84,84,84,,,,,,,,,,,,,,,,,,,,,,,,,,,,,,,,,,,,,,,,,,,,,,,,,,,,,,,,,,,,,,,,,,,,,,,,,,,,,,,,,,,,,,,,,,,,,1543.1697272335396,None,1543.6704960369898,None,1543.6704960369898,None,left,1,0.9364000369487258,1543.6704960369898,None,,,,,,,,,,,,,1544.6208788671102,None,,,,,,,,,,,,,,,,,,,,,,,,,,,,,,,,,1532.6784919777592,None,1532.6784919777592,None,1533.1783328928568,None,1542.6803262651738,1542.6803262651738,0.009883309940960316,None,1542.6803262651738,1542.6803262651738,1546.1209447782944,None,1546.1209447782944,None,None,0.008103547593236726,None,,026,001,2021_Jan_22_1035,test7,3.2.4,99.70426084383618,
150,3,Mannen lagade mat men kvinnan inte kunde äta den.  ,6,,7,,inc,1,no,157,158,,,,,,,,,,,,,0,85,85,85,,,,,,,,,,,,,,,,,,,,,,,,,,,,,,,,,,,,,,,,,,,,,,,,,,,,,,,,,,,,,,,,,,,,,,,,,,,,,,,,,,,,,,,,,,,,,1552.1213647816821,None,1552.6221162654047,None,1552.6221162654047,None,right,1,0.44057697784865013,1552.6221162654047,None,,,,,,,,,,,,,1553.071884245206,None,,,,,,,,,,,,,,,,,,,,,,,,,,,,,,,,,1546.130949005591,None,1546.130949005591,None,1546.6310503580698,None,1551.6319561156597,1551.6319561156597,0.009882347734674113,None,1551.6319561156597,1551.6319561156597,1554.5724768043951,None,1554.5724768043951,None,None,0.008297592686176358,None,,026,001,2021_Jan_22_1035,test7,3.2.4,99.70426084383618,
170,18,Kakan är för söt för morföräldrarna.  ,4,,0,,cor,1,no,171,199,,,,,,,,,,,,,0,86,86,86,,,,,,,,,,,,,,,,,,,,,,,,,,,,,,,,,,,,,,,,,,,,,,,,,,,,,,,,,,,,,,,,,,,,,,,,,,,,,,,,,,,,,,,,,,,,,1559.0726261068594,None,1559.573387533389,None,1559.573387533389,None,left,1,0.7131211688119947,1559.573387533389,None,,,,,,,,,,,,,1560.3035160329355,None,,,,,,,,,,,,,,,,,,,,,,,,,,,,,,,,,1554.5824277895663,None,1554.5824277895663,None,1555.082551914279,None,1558.583240854543,1558.583240854543,0.009878178169856255,None,1558.583240854543,1558.583240854543,1561.8037901015837,None,1561.8037901015837,None,None,0.008317157563396904,None,,026,001,2021_Jan_22_1035,test7,3.2.4,99.70426084383618,
160,5,Den nya telefonen kräver en typ av adapter som de äldre modellerna av samma märke har inte krävt.,16,,17,,inc,1,yes,163,164,,,,,,,,,,,,,0,87,87,87,,,,,,,,,,,,,,,,,,,,,,,,,,,,,,,,,,,,,,,,,,,,,,,,,,,,,,,,,,,,,,,,,,,,,,,,,,,,,,,,,,,,,,,,,,,,,1572.3050206040607,None,1572.8058237262303,None,1572.8058237262303,None,right,1,0.7205830846560275,1572.8058237262303,None,,,,,,,,,,,,,1573.5356744686696,None,,,,,,,,,,,,,,,,,,,,,,,,,,,,,,,,,1561.8138039509504,None,1561.8138039509504,None,1562.3138937569438,None,1571.815643049401,1571.815643049401,0.009874329341982957,None,1571.815643049401,1571.815643049401,1575.0359204729439,None,1575.0359204729439,None,space,0.008201371979339456,None,13.730096425977536,026,001,2021_Jan_22_1035,test7,3.2.4,99.70426084383618,
170,88,Skrovet var för smalt för det öppna havet. ,4,,0,,cor,1,no,173,199,,,,,,,,,,,,,0,88,88,88,,,,,,,,,,,,,,,,,,,,,,,,,,,,,,,,,,,,,,,,,,,,,,,,,,,,,,,,,,,,,,,,,,,,,,,,,,,,,,,,,,,,,,,,,,,,,1594.26905971842,None,1594.7698166546497,None,1594.7698166546497,None,left,1,1.06021940887058,1594.7698166546497,None,,,,,,,,,,,,,1595.8399554562275,None,,,,,,,,,,,,,,,,,,,,,,,,,,,,,,,,,1588.7787395215655,None,1588.7787395215655,None,1589.278820026224,None,1593.779648486512,1593.779648486512,0.009882989204925252,None,1593.779648486512,1593.779648486512,1597.3402885402425,None,1597.3402885402425,None,None,0.008374569252737274,None,,026,001,2021_Jan_22_1035,test7,3.2.4,99.70426084383618,
180,45,Citronen som den här gången inte köpts i affären utan plockats från gården var otroligt surt men smakade ändå bra. ,16,,0,,inc,1,no,182,199,,,,,,,,,,,,,0,89,89,89,,,,,,,,,,,,,,,,,,,,,,,,,,,,,,,,,,,,,,,,,,,,,,,,,,,,,,,,,,,,,,,,,,,,,,,,,,,,,,,,,,,,,,,,,,,,,1608.8417172573763,None,1609.3424738728709,None,1609.3424738728709,None,right,1,0.8393133433746698,1609.3424738728709,None,,,,,,,,,,,,,1610.1926454023178,None,,,,,,,,,,,,,,,,,,,,,,,,,,,,,,,,,1597.3502488267486,None,1597.3502488267486,None,1597.8503861016243,None,1608.3523178926898,1608.3523178926898,0.009879461113087018,None,1608.3523178926898,1608.3523178926898,1611.692910169631,None,1611.692910169631,None,None,0.008415302684625203,None,,026,001,2021_Jan_22_1035,test7,3.2.4,99.70426084383618,
170,48,Arbetet var ganska välbetalt och det fanns många sökande. ,4,,0,,cor,1,no,173,199,,,,,,,,,,,,,0,90,90,90,,,,,,,,,,,,,,,,,,,,,,,,,,,,,,,,,,,,,,,,,,,,,,,,,,,,,,,,,,,,,,,,,,,,,,,,,,,,,,,,,,,,,,,,,,,,,1617.6933160606477,None,1618.1940890336618,None,1618.1940890336618,None,left,1,0.9156660782236941,1618.1940890336618,None,,,,,,,,,,,,,1619.1240275293858,None,,,,,,,,,,,,,,,,,,,,,,,,,,,,,,,,,1611.702907661478,None,1611.702907661478,None,1612.2030195982334,None,1617.2039603160147,1617.2039603160147,0.00988074405631778,None,1617.2039603160147,1617.2039603160147,1620.6245501681938,None,1620.6245501681938,None,None,0.0076865911951244925,None,,026,001,2021_Jan_22_1035,test7,3.2.4,99.70426084383618,
160,1,En kritisk journalist publicerade en uppmärksammad artikel som många äldre på landsbygden i norr kunde inte förstå.,15,,16,,inc,1,no,163,164,,,,,,,,,,,,,0,91,91,91,,,,,,,,,,,,,,,,,,,,,,,,,,,,,,,,,,,,,,,,,,,,,,,,,,,,,,,,,,,,,,,,,,,,,,,,,,,,,,,,,,,,,,,,,,,,,1630.6257011282196,None,1631.1264609510708,None,1631.1264609510708,None,right,1,0.7590299926359876,1631.1264609510708,None,,,,,,,,,,,,,1631.8964617080073,None,,,,,,,,,,,,,,,,,,,,,,,,,,,,,,,,,1620.634548622248,None,1620.634548622248,None,1621.1345925630376,None,1630.1362571812724,1630.1362571812724,0.009883309941869811,None,1630.1362571812724,1630.1362571812724,1633.3968663160808,None,1633.3968663160808,None,None,0.008614158811724337,None,,026,001,2021_Jan_22_1035,test7,3.2.4,99.70426084383618,
180,39,Hjulet som alldeles nyss hade rullat utan några som helst problem var fullständigt förstörd efter krocken.  ,14,,0,,inc,1,no,182,199,,,,,,,,,,,,,0,92,92,92,,,,,,,,,,,,,,,,,,,,,,,,,,,,,,,,,,,,,,,,,,,,,,,,,,,,,,,,,,,,,,,,,,,,,,,,,,,,,,,,,,,,,,,,,,,,,1642.8979024527298,None,1643.3987203287415,None,1643.3987203287415,None,right,1,0.726556786895344,1643.3987203287415,None,,,,,,,,,,,,,1644.1389414182677,None,,,,,,,,,,,,,,,,,,,,,,,,,,,,,,,,,1633.4068711848495,None,1633.4068711848495,None,1633.9069686884986,None,1642.4085168796782,1642.4085168796782,0.009879140376142459,None,1642.4085168796782,1642.4085168796782,1645.6391163795865,None,1645.6391163795865,None,None,0.008223823477237602,None,,026,001,2021_Jan_22_1035,test7,3.2.4,99.70426084383618,
180,46,Lekparken som i utkanten nyligen hade fått en ganska stor grill installerad blev plötsligt populär bland de vuxna. ,15,,0,,cor,1,no,181,199,,,,,,,,,,,,,0,93,93,93,,,,,,,,,,,,,,,,,,,,,,,,,,,,,,,,,,,,,,,,,,,,,,,,,,,,,,,,,,,,,,,,,,,,,,,,,,,,,,,,,,,,,,,,,,,,,1656.1403157707027,None,1656.6411256283209,None,1656.6411256283209,None,left,1,0.716093747193554,1656.6411256283209,None,,,,,,,,,,,,,1657.3714590779746,None,,,,,,,,,,,,,,,,,,,,,,,,,,,,,,,,,1645.6490943065564,None,1645.6490943065564,None,1646.149120286148,None,1655.650943027078,1655.650943027078,0.009882026997729554,None,1655.650943027078,1655.650943027078,1658.8715326868155,None,1658.8715326868155,None,None,0.008108037892270659,None,,026,001,2021_Jan_22_1035,test7,3.2.4,99.70426084383618,
170,118,Marken var hemskt hård att ligga på.  ,4,,0,,cor,1,no,171,199,,,,,,,,,,,,,0,94,94,94,,,,,,,,,,,,,,,,,,,,,,,,,,,,,,,,,,,,,,,,,,,,,,,,,,,,,,,,,,,,,,,,,,,,,,,,,,,,,,,,,,,,,,,,,,,,,1663.8717268922765,None,1664.3725277692965,None,1664.3725277692965,None,left,1,1.1843880619608171,1664.3725277692965,None,,,,,,,,,,,,,1665.5725071139177,None,,,,,,,,,,,,,,,,,,,,,,,,,,,,,,,,,1658.8814548057753,None,1658.8814548057753,None,1659.3816167772993,None,1663.3823560730661,1663.3823560730661,0.009879461112177523,None,1663.3823560730661,1663.3823560730661,1667.0729858119362,None,1667.0729858119362,None,None,0.0082218990637557,None,,026,001,2021_Jan_22_1035,test7,3.2.4,99.70426084383618,
150,64,Pojken målade bilder men föräldrarna kunde inte tolka dem.  ,6,,7,,cor,1,no,155,156,,,,,,,,,,,,,0,95,95,95,,,,,,,,,,,,,,,,,,,,,,,,,,,,,,,,,,,,,,,,,,,,,,,,,,,,,,,,,,,,,,,,,,,,,,,,,,,,,,,,,,,,,,,,,,,,,1673.0734459072846,None,1673.5742493501893,None,1673.5742493501893,None,left,1,0.8945366523921621,1673.5742493501893,None,,,,,,,,,,,,,1674.4841771461706,None,,,,,,,,,,,,,,,,,,,,,,,,,,,,,,,,,1667.08298202084,None,1667.08298202084,None,1667.5830965234818,None,1672.5840295436064,1672.5840295436064,0.009883630677904875,None,1672.5840295436064,1672.5840295436064,1675.9846577686035,None,1675.9846577686035,None,None,0.008688890228768287,None,,026,001,2021_Jan_22_1035,test7,3.2.4,99.70426084383618,
170,41,Teorin var för enkelt för forskningsfrågan.  ,4,,0,,inc,1,no,172,199,,,,,,,,,,,,,0,96,96,96,,,,,,,,,,,,,,,,,,,,,,,,,,,,,,,,,,,,,,,,,,,,,,,,,,,,,,,,,,,,,,,,,,,,,,,,,,,,,,,,,,,,,,,,,,,,,1680.4847964867895,None,1680.9855235946006,None,1680.9855235946006,None,left,0,1.643107454154233,1680.9855235946006,None,,,,,,,,,,,,,1682.645526121998,None,,,,,,,,,,,,,,,,,,,,,,,,,,,,,,,,,1675.9946424310228,None,1675.9946424310228,None,1676.494740255408,None,1679.9953676144196,1679.9953676144196,0.009876253756374354,None,1679.9953676144196,1679.9953676144196,1684.146140811949,None,1684.146140811949,None,None,0.007712891521805432,None,,026,001,2021_Jan_22_1035,test7,3.2.4,99.70426084383618,
180,21,Krukan som han hade använt för att sätta den nyligen inköpta rosen i var nu trasigt och blomman låg på golvet.,16,,0,,inc,1,no,182,199,,,,,,,,,,,,,0,97,97,97,,,,,,,,,,,,,,,,,,,,,,,,,,,,,,,,,,,,,,,,,,,,,,,,,,,,,,,,,,,,,,,,,,,,,,,,,,,,,,,,,,,,,,,,,,,,,1696.1476410531423,None,1696.648430704413,None,1696.648430704413,None,right,1,0.57197565487877,1696.648430704413,None,,,,,,,,,,,,,1697.2385343405294,None,,,,,,,,,,,,,,,,,,,,,,,,,,,,,,,,,1684.1561402282096,None,1684.1561402282096,None,1684.656239656274,None,1695.6582275760848,1695.6582275760848,0.009882347733764618,None,1695.6582275760848,1695.6582275760848,1698.7388084091767,None,1698.7388084091767,None,None,0.007763247024740849,None,,026,001,2021_Jan_22_1035,test7,3.2.4,99.70426084383618,
140,61,Fotografer skannar gärna bilder av analogt film.,3,,4,,inc,1,no,137,138,,,,,,,,,,,,,0,98,98,98,,,,,,,,,,,,,,,,,,,,,,,,,,,,,,,,,,,,,,,,,,,,,,,,,,,,,,,,,,,,,,,,,,,,,,,,,,,,,,,,,,,,,,,,,,,,,1703.7390215380428,None,1704.239818566235,None,1704.239818566235,None,right,1,1.1644501692207996,1704.239818566235,None,,,,,,,,,,,,,1705.4196637278728,None,,,,,,,,,,,,,,,,,,,,,,,,,,,,,,,,,1698.7488004485167,None,1698.7488004485167,None,1699.2488918581885,None,1703.2496353235201,1703.2496353235201,0.009879781849122082,None,1703.2496353235201,1703.2496353235201,1706.9203095291855,None,1706.9203095291855,None,None,0.007911747648904566,None,,026,001,2021_Jan_22_1035,test7,3.2.4,99.70426084383618,
160,27,Fruktståndet på torget har solmogna apelsiner från Spanien som de förbipasserande resenärerna från landsbygden i söder kan inte motstå.,17,,18,,inc,1,no,163,164,,,,,,,,,,,,,0,99,99,99,,,,,,,,,,,,,,,,,,,,,,,,,,,,,,,,,,,,,,,,,,,,,,,,,,,,,,,,,,,,,,,,,,,,,,,,,,,,,,,,,,,,,,,,,,,,,1717.8916080148,None,1718.3923899684141,None,1718.3923899684141,None,right,1,0.867737581756046,1718.3923899684141,None,,,,,,,,,,,,,1719.2722728485696,None,,,,,,,,,,,,,,,,,,,,,,,,,,,,,,,,,1706.9303169638388,None,1706.9303169638388,None,1707.4304051661538,None,1717.4022019146641,1717.4022019146641,0.009885555091386777,None,1717.4022019146641,1717.4022019146641,1720.7728282024177,None,1720.7728282024177,None,None,0.007893465715824277,None,,026,001,2021_Jan_22_1035,test7,3.2.4,99.70426084383618,
150,36,Säljarna satte priser men köparna kunde inte acceptera dem i år. ,6,,7,,cor,1,no,155,156,,,,,,,,,,,,,0,100,100,100,,,,,,,,,,,,,,,,,,,,,,,,,,,,,,,,,,,,,,,,,,,,,,,,,,,,,,,,,,,,,,,,,,,,,,,,,,,,,,,,,,,,,,,,,,,,,1727.773431025148,None,1728.2742043188982,None,1728.2742043188982,None,right,0,0.8017548732586874,1728.2742043188982,None,,,,,,,,,,,,,1729.094083966038,None,,,,,,,,,,,,,,,,,,,,,,,,,,,,,,,,,1720.7828196002865,None,1720.7828196002865,None,1721.2829126136367,None,1727.284014982206,1727.284014982206,0.009878819642835879,None,1727.284014982206,1727.284014982206,1730.5945719653914,None,1730.5945719653914,None,None,0.008241463940976246,None,,026,001,2021_Jan_22_1035,test7,3.2.4,99.70426084383618,
140,9,Meteorologer förutspår ofta väder utifrån datormodell.,3,,4,,inc,1,no,131,132,,,,,,,,,,,,,0,101,101,101,,,,,,,,,,,,,,,,,,,,,,,,,,,,,,,,,,,,,,,,,,,,,,,,,,,,,,,,,,,,,,,,,,,,,,,,,,,,,,,,,,,,,,,,,,,,,1735.0947616805524,None,1735.5955356157738,None,1735.5955356157738,None,left,0,4.056265058540703,1735.5955356157738,None,,,,,,,,,,,,,1739.6660031714346,None,,,,,,,,,,,,,,,,,,,,,,,,,,,,,,,,,1730.604562401053,None,1730.604562401053,None,1731.1047070528493,None,1734.6053478827598,1734.6053478827598,0.009882347733764618,None,1734.6053478827598,1734.6053478827598,1741.1665671851465,None,1741.1665671851465,None,None,0.007799490158504341,None,,026,001,2021_Jan_22_1035,test7,3.2.4,99.70426084383618,
140,5,Sotare inspekterar ofta skorstenar på gamla husen.,3,,4,,inc,1,no,131,132,,,,,,,,,,,,,0,102,102,102,,,,,,,,,,,,,,,,,,,,,,,,,,,,,,,,,,,,,,,,,,,,,,,,,,,,,,,,,,,,,,,,,,,,,,,,,,,,,,,,,,,,,,,,,,,,,1746.1667722956208,None,1746.6675580980627,None,1746.6675580980627,None,right,1,0.5842046652924182,1746.6675580980627,None,,,,,,,,,,,,,1747.267352121603,None,,,,,,,,,,,,,,,,,,,,,,,,,,,,,,,,,1741.1765675636152,None,1741.1765675636152,None,1741.6766365217882,None,1745.677366836956,1745.677366836956,0.009880423320282716,None,1745.677366836956,1745.677366836956,1748.7679504540333,None,1748.7679504540333,None,None,0.007873259366533603,None,,026,001,2021_Jan_22_1035,test7,3.2.4,99.70426084383618,
160,14,Den unge chauffören begärde en stor summa pengar som det äldre lättretade paret från Paris inte kunde betala.,16,,17,,cor,1,no,161,162,,,,,,,,,,,,,0,103,103,103,,,,,,,,,,,,,,,,,,,,,,,,,,,,,,,,,,,,,,,,,,,,,,,,,,,,,,,,,,,,,,,,,,,,,,,,,,,,,,,,,,,,,,,,,,,,,1759.2691511280918,None,1759.7699516843759,None,1759.7699516843759,None,right,0,1.1295028083623038,1759.7699516843759,None,,,,,,,,,,,,,1760.9098832137206,None,,,,,,,,,,,,,,,,,,,,,,,,,,,,,,,,,1748.7779482666165,None,1748.7779482666165,None,1749.278034223781,None,1758.7797107092365,1758.7797107092365,0.009883309940960316,None,1758.7797107092365,1758.7797107092365,1762.4104228515203,None,1762.4104228515203,None,None,0.007761322611258947,None,,026,001,2021_Jan_22_1035,test7,3.2.4,99.70426084383618,
170,6,Mangon var mycket saftig men smakade inget.  ,4,,0,,cor,1,no,171,199,,,,,,,,,,,,,0,104,104,104,,,,,,,,,,,,,,,,,,,,,,,,,,,,,,,,,,,,,,,,,,,,,,,,,,,,,,,,,,,,,,,,,,,,,,,,,,,,,,,,,,,,,,,,,,,,,1767.4106686954274,None,1767.9114336500488,None,1767.9114336500488,None,left,1,0.7399311444623891,1767.9114336500488,None,,,,,,,,,,,,,1768.6612857908958,None,,,,,,,,,,,,,,,,,,,,,,,,,,,,,,,,,1762.4204424741292,None,1762.4204424741292,None,1762.920511111567,None,1766.9212552183699,1766.9212552183699,0.009880423319373222,None,1766.9212552183699,1766.9212552183699,1770.1618520497582,None,1770.1618520497582,None,None,0.007905653672423796,None,,026,001,2021_Jan_22_1035,test7,3.2.4,99.70426084383618,
170,3,Häftet är oerhört tjock men lätt att läsa. ,4,,0,,inc,1,no,174,199,,,,,,,,,,,,,0,105,105,105,,,,,,,,,,,,,,,,,,,,,,,,,,,,,,,,,,,,,,,,,,,,,,,,,,,,,,,,,,,,,,,,,,,,,,,,,,,,,,,,,,,,,,,,,,,,,1775.6621674933094,None,1776.1629417492668,None,1776.1629417492668,None,left,0,0.952275170696339,1776.1629417492668,None,,,,,,,,,,,,,1777.1331101226751,None,,,,,,,,,,,,,,,,,,,,,,,,,,,,,,,,,1770.1718460135116,None,1770.1718460135116,None,1770.6719377439194,None,1775.1727562614024,1775.1727562614024,0.009882347732855123,None,1775.1727562614024,1775.1727562614024,1778.6333861157368,None,1778.6333861157368,None,None,0.008087831544798973,None,,026,001,2021_Jan_22_1035,test7,3.2.4,99.70426084383618,
130,28,Ormar äter gärna möss och andra gnagare.,3,,4,,cor,1,no,133,134,,,,,,,,,,,,,0,106,106,106,,,,,,,,,,,,,,,,,,,,,,,,,,,,,,,,,,,,,,,,,,,,,,,,,,,,,,,,,,,,,,,,,,,,,,,,,,,,,,,,,,,,,,,,,,,,,1783.6335989238678,None,1784.1344023667725,None,1784.1344023667725,None,left,1,0.4687520045981728,1784.1344023667725,None,,,,,,,,,,,,,1784.6146498592616,None,,,,,,,,,,,,,,,,,,,,,,,,,,,,,,,,,1778.6433986821612,None,1778.6433986821612,None,1779.1434686025423,None,1783.1442184825864,1783.1442184825864,0.009879781848212588,None,1783.1442184825864,1783.1442184825864,1786.1147667674209,None,1786.1147667674209,None,None,0.008185976666936767,None,,026,001,2021_Jan_22_1035,test7,3.2.4,99.70426084383618,
180,37,Tavlan som för en liten stund sedan auktionerades ut till en beslutsam konstkännare var otroligt vackert men kostade en förmögenhet. ,16,,0,,inc,1,no,182,199,,,,,,,,,,,,,0,107,107,107,,,,,,,,,,,,,,,,,,,,,,,,,,,,,,,,,,,,,,,,,,,,,,,,,,,,,,,,,,,,,,,,,,,,,,,,,,,,,,,,,,,,,,,,,,,,,1797.6161448083158,None,1798.116941515771,None,1798.116941515771,None,left,0,0.4779455724365107,1798.116941515771,None,,,,,,,,,,,,,1798.607199169166,None,,,,,,,,,,,,,,,,,,,,,,,,,,,,,,,,,1786.1247632970608,None,1786.1247632970608,None,1786.624833538177,None,1797.1267662914488,1797.1267662914488,0.00988170626169449,None,1797.1267662914488,1797.1267662914488,1800.1073167187974,None,1800.1073167187974,None,None,0.008141715141391614,None,,026,001,2021_Jan_22_1035,test7,3.2.4,99.70426084383618,
180,25,Pennan som hade använts flera gånger tidigare på de många lektionerna var återigen vässat och matematikboken låg på bordet.,14,,0,,inc,1,no,182,199,,,,,,,,,,,,,0,108,108,108,,,,,,,,,,,,,,,,,,,,,,,,,,,,,,,,,,,,,,,,,,,,,,,,,,,,,,,,,,,,,,,,,,,,,,,,,,,,,,,,,,,,,,,,,,,,,1811.1086623653873,None,1811.6094128869036,None,1811.6094128869036,None,right,1,0.9131325870030196,1811.6094128869036,None,,,,,,,,,,,,,1812.5395512009627,None,,,,,,,,,,,,,,,,,,,,,,,,,,,,,,,,,1800.1172782882468,None,1800.1172782882468,None,1800.6174036959019,None,1810.6192318893382,1810.6192318893382,0.009881706263513479,None,1810.6192318893382,1810.6192318893382,1814.0398339294738,None,1814.0398339294738,None,None,0.008108679365250282,None,,026,001,2021_Jan_22_1035,test7,3.2.4,99.70426084383618,
