trig_exp,trig_item,sentence,trig_w1,trig1,trig_w2,trig2,gram,task,paus,trig_1,trig_2,prac_trials.thisRepN,prac_trials.thisTrialN,prac_trials.thisN,prac_trials.thisIndex,trials_2.thisRepN,trials_2.thisTrialN,trials_2.thisN,trials_2.thisIndex,trials.thisRepN,trials.thisTrialN,trials.thisN,trials.thisIndex,exp_trials.thisRepN,exp_trials.thisTrialN,exp_trials.thisN,exp_trials.thisIndex,grating_1.started,grating_1.stopped,text_1.started,text_1.stopped,key_resp_1.keys,key_resp_1.rt,key_resp_1.started,key_resp_1.stopped,grating_2.started,grating_2.stopped,text_2.started,text_2.stopped,key_resp_2.keys,key_resp_2.rt,key_resp_2.started,key_resp_2.stopped,grating_3.started,grating_3.stopped,text_3.started,text_3.stopped,key_resp_3.keys,key_resp_3.rt,key_resp_3.started,key_resp_3.stopped,grating_4.started,grating_4.stopped,text_4.started,text_4.stopped,key_resp_4.keys,key_resp_4.rt,key_resp_4.started,key_resp_4.stopped,grating_5.started,grating_5.stopped,text_5.started,text_5.stopped,key_resp_5.keys,key_resp_5.rt,key_resp_5.started,key_resp_5.stopped,grating_6.started,grating_6.stopped,text_6.started,text_6.stopped,key_resp_6.keys,key_resp_6.rt,key_resp_6.started,key_resp_6.stopped,grating_7.started,grating_7.stopped,text_7.started,text_7.stopped,key_resp_7.keys,key_resp_7.rt,key_resp_7.started,key_resp_7.stopped,grating_8.started,grating_8.stopped,text_8.started,text_8.stopped,key_resp_8.keys,key_resp_8.rt,key_resp_8.started,key_resp_8.stopped,grating_9.started,grating_9.stopped,text_9.started,text_9.stopped,key_resp_9.keys,key_resp_9.rt,key_resp_9.started,key_resp_9.stopped,grating.started,grating.stopped,text.started,text.stopped,key_resp.keys,key_resp.rt,key_resp.started,key_resp.stopped,grating_14.started,grating_14.stopped,text_fix_4.started,text_fix_4.stopped,grating_16.started,grating_16.stopped,grating_40.started,grating_40.stopped,ISI_4.started,ISI_4.stopped,text_19.started,text_19.stopped,grating_24.started,grating_24.stopped,grating_35.started,grating_35.stopped,prompt.started,prompt.stopped,Button_Press.keys,Button_Press.corr,Button_Press.rt,Button_Press.started,Button_Press.stopped,grating_33.started,grating_33.stopped,grating_34.started,grating_34.stopped,Correct_Incorrect.started,Correct_Incorrect.stopped,Continue_text.started,Continue_text.stopped,Press_Bar.keys,Press_Bar.rt,Press_Bar.started,Press_Bar.stopped,grating_26.started,grating_26.stopped,grating_27.started,grating_27.stopped,text_10.started,text_10.stopped,key_resp_11.keys,key_resp_11.rt,key_resp_11.started,key_resp_11.stopped,grating_28.started,grating_28.stopped,text_11.started,text_11.stopped,key_resp_12.keys,key_resp_12.rt,key_resp_12.started,key_resp_12.stopped,grating_29.started,grating_29.stopped,text_12.started,text_12.stopped,key_resp_13.keys,key_resp_13.rt,key_resp_13.started,key_resp_13.stopped,grating_36.started,grating_36.stopped,text_14.started,text_14.stopped,key_resp_14.keys,key_resp_14.rt,key_resp_14.started,key_resp_14.stopped,grating_10.started,grating_10.stopped,text_fix.started,text_fix.stopped,grating_11.started,grating_11.stopped,grating_37.started,grating_37.stopped,ISI_2.started,ISI_2.stopped,text_15.started,text_15.stopped,grating_38.started,grating_38.stopped,text_fix_3.started,text_fix_3.stopped,key_resp_16.keys,key_resp_16.started,key_resp_16.stopped,key_resp_16.rt,participant,session,date,expName,psychopyVersion,frameRate,
,,,,,,,,,,,,,,,,,,,,,,,,,,,,9.476679307929317,None,9.476679307929317,None,space,2.2761585614616706,9.476679307929317,None,,,,,,,,,,,,,,,,,,,,,,,,,,,,,,,,,,,,,,,,,,,,,,,,,,,,,,,,,,,,,,,,,,,,,,,,,,,,,,,,,,,,,,,,,,,,,,,,,,,,,,,,,,,,,,,,,,,,,,,,,,,,,,,,,,,,,,,,,,,,,,,,,,,,,,,,,,,,,,,,,,NENA_005,001,2020_Sep_09_1349,test7,3.2.4,99.95261772639046,
,,,,,,,,,,,,,,,,,,,,,,,,,,,,,,,,,,,,11.767418193154754,None,11.767418193154754,None,space,2.305356735064379,11.767418193154754,None,,,,,,,,,,,,,,,,,,,,,,,,,,,,,,,,,,,,,,,,,,,,,,,,,,,,,,,,,,,,,,,,,,,,,,,,,,,,,,,,,,,,,,,,,,,,,,,,,,,,,,,,,,,,,,,,,,,,,,,,,,,,,,,,,,,,,,,,,,,,,,,,,,,,,,,,,,NENA_005,001,2020_Sep_09_1349,test7,3.2.4,99.95261772639046,
,,,,,,,,,,,,,,,,,,,,,,,,,,,,,,,,,,,,,,,,,,,,14.08789055985062,None,14.08789055985062,None,space,1.7847760879994894,14.08789055985062,None,,,,,,,,,,,,,,,,,,,,,,,,,,,,,,,,,,,,,,,,,,,,,,,,,,,,,,,,,,,,,,,,,,,,,,,,,,,,,,,,,,,,,,,,,,,,,,,,,,,,,,,,,,,,,,,,,,,,,,,,,,,,,,,,,,,,,,,,,,,,,,,,,,NENA_005,001,2020_Sep_09_1349,test7,3.2.4,99.95261772639046,
,,,,,,,,,,,,,,,,,,,,,,,,,,,,,,,,,,,,,,,,,,,,,,,,,,,,15.888175501438127,None,15.888175501438127,None,space,1.2803881030154116,15.888175501438127,None,,,,,,,,,,,,,,,,,,,,,,,,,,,,,,,,,,,,,,,,,,,,,,,,,,,,,,,,,,,,,,,,,,,,,,,,,,,,,,,,,,,,,,,,,,,,,,,,,,,,,,,,,,,,,,,,,,,,,,,,,,,,,,,,,,,,,,,,,,NENA_005,001,2020_Sep_09_1349,test7,3.2.4,99.95261772639046,
,,,,,,,,,,,,,,,,,,,,,,,,,,,,,,,,,,,,,,,,,,,,,,,,,,,,,,,,,,,,17.178220314629016,None,17.178220314629016,None,space,3.1742152880592585,17.178220314629016,None,,,,,,,,,,,,,,,,,,,,,,,,,,,,,,,,,,,,,,,,,,,,,,,,,,,,,,,,,,,,,,,,,,,,,,,,,,,,,,,,,,,,,,,,,,,,,,,,,,,,,,,,,,,,,,,,,,,,,,,,,,,,,,,,,,NENA_005,001,2020_Sep_09_1349,test7,3.2.4,99.95261772639046,
,,,,,,,,,,,,,,,,,,,,,,,,,,,,,,,,,,,,,,,,,,,,,,,,,,,,,,,,,,,,,,,,,,,,20.36898588506392,None,20.36898588506392,None,space,1.911517041328807,20.36898588506392,None,,,,,,,,,,,,,,,,,,,,,,,,,,,,,,,,,,,,,,,,,,,,,,,,,,,,,,,,,,,,,,,,,,,,,,,,,,,,,,,,,,,,,,,,,,,,,,,,,,,,,,,,,,,,,,,,,,,,,,,,,,NENA_005,001,2020_Sep_09_1349,test7,3.2.4,99.95261772639046,
,,,,,,,,,,,,,,,,,,,,,,,,,,,,,,,,,,,,,,,,,,,,,,,,,,,,,,,,,,,,,,,,,,,,,,,,,,,,22.299354808084445,None,22.299354808084445,None,space,1.3652445032316791,22.299354808084445,None,,,,,,,,,,,,,,,,,,,,,,,,,,,,,,,,,,,,,,,,,,,,,,,,,,,,,,,,,,,,,,,,,,,,,,,,,,,,,,,,,,,,,,,,,,,,,,,,,,,,,,,,,,,,,,,,,,NENA_005,001,2020_Sep_09_1349,test7,3.2.4,99.95261772639046,
,,,,,,,,,,,,,,,,,,,,,,,,,,,,,,,,,,,,,,,,,,,,,,,,,,,,,,,,,,,,,,,,,,,,,,,,,,,,,,,,,,,,23.679600119570296,None,23.679600119570296,None,space,1.7768349930333898,23.679600119570296,None,,,,,,,,,,,,,,,,,,,,,,,,,,,,,,,,,,,,,,,,,,,,,,,,,,,,,,,,,,,,,,,,,,,,,,,,,,,,,,,,,,,,,,,,,,,,,,,,,,,,,,,,,,NENA_005,001,2020_Sep_09_1349,test7,3.2.4,99.95261772639046,
,,,,,,,,,,,,,,,,,,,,,,,,,,,,,,,,,,,,,,,,,,,,,,,,,,,,,,,,,,,,,,,,,,,,,,,,,,,,,,,,,,,,,,,,,,,,25.46984763771752,None,25.46984763771752,None,space,0.9465603021585594,25.46984763771752,None,,,,,,,,,,,,,,,,,,,,,,,,,,,,,,,,,,,,,,,,,,,,,,,,,,,,,,,,,,,,,,,,,,,,,,,,,,,,,,,,,,,,,,,,,,,,,,,,,,NENA_005,001,2020_Sep_09_1349,test7,3.2.4,99.95261772639046,
,,,,,,,,,,,,,,,,,,,,,,,,,,,,,,,,,,,,,,,,,,,,,,,,,,,,,,,,,,,,,,,,,,,,,,,,,,,,,,,,,,,,,,,,,,,,,,,,,,,,26.430105919754624,None,26.430105919754624,None,space,0.9062823141207446,26.430105919754624,None,,,,,,,,,,,,,,,,,,,,,,,,,,,,,,,,,,,,,,,,,,,,,,,,,,,,,,,,,,,,,,,,,,,,,,,,,,,,,,,,,,,,,,,,,,NENA_005,001,2020_Sep_09_1349,test7,3.2.4,99.95261772639046,
199,1,Meningarna presenteras ord för ord.,99,99,99,99,cor,1,no,,,0,0,0,0,0,0,0,0,0,0,0,0,,,,,,,,,,,,,,,,,,,,,,,,,,,,,,,,,,,,,,,,,,,,,,,,,,,,,,,,,,,,,,,,,,,,,,,,,,,,,,,,,,,,,27.40973920339502,None,27.40973920339502,None,27.860487030731747,None,30.871043725255277,30.871043725255277,0.009876766932393366,None,30.871043725255277,30.871043725255277,31.360454636426766,None,31.870983747681294,None,31.870983747681294,None,left,1,0.1373771903040506,31.870983747681294,None,32.03127237131457,None,32.36100566034338,None,32.36100566034338,None,32.36100566034338,None,space,1.5354175593811306,32.36100566034338,None,,,,,,,,,,,,,,,,,,,,,,,,,,,,,,,,,,,,,,,,,,,,,,,,,,,,,,,NENA_005,001,2020_Sep_09_1349,test7,3.2.4,99.95261772639046,
199,1,Meningarna presenteras ord för ord.,99,99,99,99,cor,1,no,,,0,0,0,0,0,0,0,0,,,,,,,,,,,,,,,,,,,,,,,,,,,,,,,,,,,,,,,,,,,,,,,,,,,,,,,,,,,,,,,,,,,,,,,,,,,,,,,,,,,,,,,,,,,,,,,,,,,,,,,,,,,,,,,,,,,,,,,,,,,,,,,,,,,,,,,,,,,,,,,,,,,,,,,,,,,,,,,,,,,,,,,,,,,,,,,,,,NENA_005,001,2020_Sep_09_1349,test7,3.2.4,99.95261772639046,
199,1,Meningarna presenteras ord för ord.,99,99,99,99,cor,1,no,,,0,0,0,0,,,,,,,,,,,,,,,,,,,,,,,,,,,,,,,,,,,,,,,,,,,,,,,,,,,,,,,,,,,,,,,,,,,,,,,,,,,,,,,,,,,,,,,,,,,,,,,,,,,,,,,,,,,,,,,,,,,,,,,,,,,,,,,,33.91125179291248,None,,,,,,,,,,,,,,,,,,,,,,,,,,,,,,,,,,,,,,,,,,,,,,,,,,,,,NENA_005,001,2020_Sep_09_1349,test7,3.2.4,99.95261772639046,
199,2,Läs meningen noggrant och ange ditt svar när du ser frågetecknet.,99,99,99,99,cor,1,no,,,0,1,1,1,0,0,0,0,0,0,0,0,,,,,,,,,,,,,,,,,,,,,,,,,,,,,,,,,,,,,,,,,,,,,,,,,,,,,,,,,,,,,,,,,,,,,,,,,,,,,,,,,,,,,35.411846116147444,None,35.411846116147444,None,35.91194458200471,None,41.923061922515444,41.923061922515444,0.009900180637941958,None,41.923061922515444,41.923061922515444,42.41245936278801,None,42.913245806701525,None,42.913245806701525,None,left,1,1.286862152931917,42.913245806701525,None,44.22348029015029,None,44.52353943381195,None,44.52353943381195,None,44.52353943381195,None,space,1.7405976332270257,44.52353943381195,None,,,,,,,,,,,,,,,,,,,,,,,,,,,,,,,,,,,,,,,,,,,,,,,,,,,,,,,NENA_005,001,2020_Sep_09_1349,test7,3.2.4,99.95261772639046,
199,2,Läs meningen noggrant och ange ditt svar när du ser frågetecknet.,99,99,99,99,cor,1,no,,,0,1,1,1,0,0,0,0,,,,,,,,,,,,,,,,,,,,,,,,,,,,,,,,,,,,,,,,,,,,,,,,,,,,,,,,,,,,,,,,,,,,,,,,,,,,,,,,,,,,,,,,,,,,,,,,,,,,,,,,,,,,,,,,,,,,,,,,,,,,,,,,,,,,,,,,,,,,,,,,,,,,,,,,,,,,,,,,,,,,,,,,,,,,,,,,,,NENA_005,001,2020_Sep_09_1349,test7,3.2.4,99.95261772639046,
199,2,Läs meningen noggrant och ange ditt svar när du ser frågetecknet.,99,99,99,99,cor,1,no,,,0,1,1,1,,,,,,,,,,,,,,,,,,,,,,,,,,,,,,,,,,,,,,,,,,,,,,,,,,,,,,,,,,,,,,,,,,,,,,,,,,,,,,,,,,,,,,,,,,,,,,,,,,,,,,,,,,,,,,,,,,,,,,,,,,,,,,,,46.283862632752516,None,,,,,,,,,,,,,,,,,,,,,,,,,,,,,,,,,,,,,,,,,,,,,,,,,,,,,NENA_005,001,2020_Sep_09_1349,test7,3.2.4,99.95261772639046,
199,3,I den här meningen finns det en misstag.,99,99,99,99,inc,1,no,,,0,2,2,2,0,0,0,0,0,0,0,0,,,,,,,,,,,,,,,,,,,,,,,,,,,,,,,,,,,,,,,,,,,,,,,,,,,,,,,,,,,,,,,,,,,,,,,,,,,,,,,,,,,,,47.78412980558278,None,47.78412980558278,None,48.28416508650889,None,52.78506314644301,52.78506314644301,0.009904991673920449,None,52.78506314644301,52.78506314644301,53.27445673788725,None,53.775171978477374,None,53.775171978477374,None,right,1,0.984769224255615,53.775171978477374,None,54.775021553438364,None,55.07538603747753,None,55.07538603747753,None,55.07538603747753,None,space,1.4045064006018038,55.07538603747753,None,,,,,,,,,,,,,,,,,,,,,,,,,,,,,,,,,,,,,,,,,,,,,,,,,,,,,,,NENA_005,001,2020_Sep_09_1349,test7,3.2.4,99.95261772639046,
199,3,I den här meningen finns det en misstag.,99,99,99,99,inc,1,no,,,0,2,2,2,0,0,0,0,,,,,,,,,,,,,,,,,,,,,,,,,,,,,,,,,,,,,,,,,,,,,,,,,,,,,,,,,,,,,,,,,,,,,,,,,,,,,,,,,,,,,,,,,,,,,,,,,,,,,,,,,,,,,,,,,,,,,,,,,,,,,,,,,,,,,,,,,,,,,,,,,,,,,,,,,,,,,,,,,,,,,,,,,,,,,,,,,,NENA_005,001,2020_Sep_09_1349,test7,3.2.4,99.95261772639046,
199,3,I den här meningen finns det en misstag.,99,99,99,99,inc,1,no,,,0,2,2,2,,,,,,,,,,,,,,,,,,,,,,,,,,,,,,,,,,,,,,,,,,,,,,,,,,,,,,,,,,,,,,,,,,,,,,,,,,,,,,,,,,,,,,,,,,,,,,,,,,,,,,,,,,,,,,,,,,,,,,,,,,,,,,,,56.50572288692911,None,,,,,,,,,,,,,,,,,,,,,,,,,,,,,,,,,,,,,,,,,,,,,,,,,,,,,NENA_005,001,2020_Sep_09_1349,test7,3.2.4,99.95261772639046,
199,4,I det här meningen finns det ett till misstag.,99,99,99,99,inc,1,no,,,0,3,3,3,0,0,0,0,0,0,0,0,,,,,,,,,,,,,,,,,,,,,,,,,,,,,,,,,,,,,,,,,,,,,,,,,,,,,,,,,,,,,,,,,,,,,,,,,,,,,,,,,,,,,58.006004492865486,None,58.006004492865486,None,58.5061003928372,None,63.50700358454196,63.50700358454196,0.00990402946672475,None,63.50700358454196,63.50700358454196,63.99638723318003,None,64.49706430622291,None,64.49706430622291,None,right,1,2.1187466162382407,64.49706430622291,None,66.62752611430005,None,66.92787552376149,None,66.92787552376149,None,66.92787552376149,None,space,1.3679489465757797,66.92787552376149,None,,,,,,,,,,,,,,,,,,,,,,,,,,,,,,,,,,,,,,,,,,,,,,,,,,,,,,,NENA_005,001,2020_Sep_09_1349,test7,3.2.4,99.95261772639046,
199,4,I det här meningen finns det ett till misstag.,99,99,99,99,inc,1,no,,,0,3,3,3,0,0,0,0,,,,,,,,,,,,,,,,,,,,,,,,,,,,,,,,,,,,,,,,,,,,,,,,,,,,,,,,,,,,,,,,,,,,,,,,,,,,,,,,,,,,,,,,,,,,,,,,,,,,,,,,,,,,,,,,,,,,,,,,,,,,,,,,,,,,,,,,,,,,,,,,,,,,,,,,,,,,,,,,,,,,,,,,,,,,,,,,,,NENA_005,001,2020_Sep_09_1349,test7,3.2.4,99.95261772639046,
199,4,I det här meningen finns det ett till misstag.,99,99,99,99,inc,1,no,,,0,3,3,3,,,,,,,,,,,,,,,,,,,,,,,,,,,,,,,,,,,,,,,,,,,,,,,,,,,,,,,,,,,,,,,,,,,,,,,,,,,,,,,,,,,,,,,,,,,,,,,,,,,,,,,,,,,,,,,,,,,,,,,,,,,,,,,,68.30860322172612,None,,,,,,,,,,,,,,,,,,,,,,,,,,,,,,,,,,,,,,,,,,,,,,,,,,,,,NENA_005,001,2020_Sep_09_1349,test7,3.2.4,99.95261772639046,
199,5,Ibland kan meningarna låta lite märkliga men ändå vara grammatiskt korrekta.,99,99,99,99,cor,1,no,,,0,4,4,4,0,0,0,0,0,0,0,0,,,,,,,,,,,,,,,,,,,,,,,,,,,,,,,,,,,,,,,,,,,,,,,,,,,,,,,,,,,,,,,,,,,,,,,,,,,,,,,,,,,,,69.8081153827402,None,69.8081153827402,None,70.3082468843736,None,76.30930851950961,76.30930851950961,0.009902105052333354,None,76.30930851950961,76.30930851950961,76.79873514673045,None,77.299528646829,None,77.299528646829,None,left,1,1.0519967079690105,77.299528646829,None,78.36944100900882,None,78.67036293167803,None,78.67036293167803,None,78.67036293167803,None,space,1.3451407901388848,78.67036293167803,None,,,,,,,,,,,,,,,,,,,,,,,,,,,,,,,,,,,,,,,,,,,,,,,,,,,,,,,NENA_005,001,2020_Sep_09_1349,test7,3.2.4,99.95261772639046,
199,5,Ibland kan meningarna låta lite märkliga men ändå vara grammatiskt korrekta.,99,99,99,99,cor,1,no,,,0,4,4,4,0,0,0,0,,,,,,,,,,,,,,,,,,,,,,,,,,,,,,,,,,,,,,,,,,,,,,,,,,,,,,,,,,,,,,,,,,,,,,,,,,,,,,,,,,,,,,,,,,,,,,,,,,,,,,,,,,,,,,,,,,,,,,,,,,,,,,,,,,,,,,,,,,,,,,,,,,,,,,,,,,,,,,,,,,,,,,,,,,,,,,,,,,NENA_005,001,2020_Sep_09_1349,test7,3.2.4,99.95261772639046,
199,5,Ibland kan meningarna låta lite märkliga men ändå vara grammatiskt korrekta.,99,99,99,99,cor,1,no,,,0,4,4,4,,,,,,,,,,,,,,,,,,,,,,,,,,,,,,,,,,,,,,,,,,,,,,,,,,,,,,,,,,,,,,,,,,,,,,,,,,,,,,,,,,,,,,,,,,,,,,,,,,,,,,,,,,,,,,,,,,,,,,,,,,,,,,,,80.03015460743245,None,,,,,,,,,,,,,,,,,,,,,,,,,,,,,,,,,,,,,,,,,,,,,,,,,,,,,NENA_005,001,2020_Sep_09_1349,test7,3.2.4,99.95261772639046,
199,6,De gröna idéerna missade bussen i morse.,99,99,99,99,cor,1,no,,,0,5,5,5,0,0,0,0,0,0,0,0,,,,,,,,,,,,,,,,,,,,,,,,,,,,,,,,,,,,,,,,,,,,,,,,,,,,,,,,,,,,,,,,,,,,,,,,,,,,,,,,,,,,,81.53029188230812,None,81.53029188230812,None,82.03036565151706,None,86.0311152108261,86.0311152108261,0.009900822109557339,None,86.0311152108261,86.0311152108261,86.52049404842865,None,87.02128049234216,None,87.02128049234216,None,left,1,1.058191076363073,87.02128049234216,None,88.10145671736018,None,88.40120378519441,None,88.40120378519441,None,88.40120378519441,None,space,1.214177992912937,88.40120378519441,None,,,,,,,,,,,,,,,,,,,,,,,,,,,,,,,,,,,,,,,,,,,,,,,,,,,,,,,NENA_005,001,2020_Sep_09_1349,test7,3.2.4,99.95261772639046,
199,6,De gröna idéerna missade bussen i morse.,99,99,99,99,cor,1,no,,,0,5,5,5,0,0,0,0,,,,,,,,,,,,,,,,,,,,,,,,,,,,,,,,,,,,,,,,,,,,,,,,,,,,,,,,,,,,,,,,,,,,,,,,,,,,,,,,,,,,,,,,,,,,,,,,,,,,,,,,,,,,,,,,,,,,,,,,,,,,,,,,,,,,,,,,,,,,,,,,,,,,,,,,,,,,,,,,,,,,,,,,,,,,,,,,,,NENA_005,001,2020_Sep_09_1349,test7,3.2.4,99.95261772639046,
199,6,De gröna idéerna missade bussen i morse.,99,99,99,99,cor,1,no,,,0,5,5,5,,,,,,,,,,,,,,,,,,,,,,,,,,,,,,,,,,,,,,,,,,,,,,,,,,,,,,,,,,,,,,,,,,,,,,,,,,,,,,,,,,,,,,,,,,,,,,,,,,,,,,,,,,,,,,,,,,,,,,,,,,,,,,,,89.64180013547866,None,,,,,,,,,,,,,,,,,,,,,,,,,,,,,,,,,,,,,,,,,,,,,,,,,,,,,NENA_005,001,2020_Sep_09_1349,test7,3.2.4,99.95261772639046,
199,7,Det bruna bordet är mer än hundra år gamla.,99,99,99,99,inc,1,no,,,0,6,6,6,0,0,0,0,0,0,0,0,,,,,,,,,,,,,,,,,,,,,,,,,,,,,,,,,,,,,,,,,,,,,,,,,,,,,,,,,,,,,,,,,,,,,,,,,,,,,,,,,,,,,91.1420461397538,None,91.1420461397538,None,91.64209072201447,None,96.64305934380036,96.64305934380036,0.009902746523948736,None,96.64305934380036,96.64305934380036,97.13246351952239,None,97.63317426981303,None,97.63317426981303,None,right,1,1.7181127783665033,97.63317426981303,None,99.36411775875058,None,99.66420544788843,None,99.66420544788843,None,99.66420544788843,None,space,1.1429942344552728,99.66420544788843,None,,,,,,,,,,,,,,,,,,,,,,,,,,,,,,,,,,,,,,,,,,,,,,,,,,,,,,,NENA_005,001,2020_Sep_09_1349,test7,3.2.4,99.95261772639046,
199,7,Det bruna bordet är mer än hundra år gamla.,99,99,99,99,inc,1,no,,,0,6,6,6,0,0,0,0,,,,,,,,,,,,,,,,,,,,,,,,,,,,,,,,,,,,,,,,,,,,,,,,,,,,,,,,,,,,,,,,,,,,,,,,,,,,,,,,,,,,,,,,,,,,,,,,,,,,,,,,,,,,,,,,,,,,,,,,,,,,,,,,,,,,,,,,,,,,,,,,,,,,,,,,,,,,,,,,,,,,,,,,,,,,,,,,,,NENA_005,001,2020_Sep_09_1349,test7,3.2.4,99.95261772639046,
199,7,Det bruna bordet är mer än hundra år gamla.,99,99,99,99,inc,1,no,,,0,6,6,6,,,,,,,,,,,,,,,,,,,,,,,,,,,,,,,,,,,,,,,,,,,,,,,,,,,,,,,,,,,,,,,,,,,,,,,,,,,,,,,,,,,,,,,,,,,,,,,,,,,,,,,,,,,,,,,,,,,,,,,,,,,,,,,,100.83367609287507,None,,,,,,,,,,,,,,,,,,,,,,,,,,,,,,,,,,,,,,,,,,,,,,,,,,,,,NENA_005,001,2020_Sep_09_1349,test7,3.2.4,99.95261772639046,
199,8,På våren gilla alla att tillbringa tid i solen.,99,99,99,99,inc,1,no,,,0,7,7,7,0,0,0,0,0,0,0,0,,,,,,,,,,,,,,,,,,,,,,,,,,,,,,,,,,,,,,,,,,,,,,,,,,,,,,,,,,,,,,,,,,,,,,,,,,,,,,,,,,,,,102.3340892004444,None,102.3340892004444,None,102.83416585627447,None,107.83510849846971,107.83510849846971,0.009903708730689686,None,107.83510849846971,107.83510849846971,108.32447514811565,None,108.82494695031664,None,108.82494695031664,None,right,1,0.5181879588126321,108.82494695031664,None,109.3552417192459,None,109.65562063639118,None,109.65562063639118,None,109.65562063639118,None,space,1.0633780139532973,109.65562063639118,None,,,,,,,,,,,,,,,,,,,,,,,,,,,,,,,,,,,,,,,,,,,,,,,,,,,,,,,NENA_005,001,2020_Sep_09_1349,test7,3.2.4,99.95261772639046,
199,8,På våren gilla alla att tillbringa tid i solen.,99,99,99,99,inc,1,no,,,0,7,7,7,0,0,0,0,,,,,,,,,,,,,,,,,,,,,,,,,,,,,,,,,,,,,,,,,,,,,,,,,,,,,,,,,,,,,,,,,,,,,,,,,,,,,,,,,,,,,,,,,,,,,,,,,,,,,,,,,,,,,,,,,,,,,,,,,,,,,,,,,,,,,,,,,,,,,,,,,,,,,,,,,,,,,,,,,,,,,,,,,,,,,,,,,,NENA_005,001,2020_Sep_09_1349,test7,3.2.4,99.95261772639046,
199,8,På våren gilla alla att tillbringa tid i solen.,99,99,99,99,inc,1,no,,,0,7,7,7,,,,,,,,,,,,,,,,,,,,,,,,,,,,,,,,,,,,,,,,,,,,,,,,,,,,,,,,,,,,,,,,,,,,,,,,,,,,,,,,,,,,,,,,,,,,,,,,,,,,,,,,,,,,,,,,,,,,,,,,,,,,,,,,110.73594279614827,None,,,,,,,,,,,,,,,,,,,,,,,,,,,,,,,,,,,,,,,,,,,,,,,,,,,,,NENA_005,001,2020_Sep_09_1349,test7,3.2.4,99.95261772639046,
199,9,Tidningen avskedade dem journalist som publicerade falska fakta.,99,99,99,99,inc,1,no,,,0,8,8,8,0,0,0,0,0,0,0,0,,,,,,,,,,,,,,,,,,,,,,,,,,,,,,,,,,,,,,,,,,,,,,,,,,,,,,,,,,,,,,,,,,,,,,,,,,,,,,,,,,,,,112.23589051623048,None,112.23589051623048,None,112.735943758355,None,117.23674848420342,117.23674848420342,0.009905312409046019,None,117.23674848420342,117.23674848420342,117.72622514619161,None,118.22684929784555,None,118.22684929784555,None,right,1,0.7320747237181422,118.22684929784555,None,118.97684929784555,None,119.2769716264379,None,119.2769716264379,None,119.2769716264379,None,space,1.673872100870085,119.2769716264379,None,,,,,,,,,,,,,,,,,,,,,,,,,,,,,,,,,,,,,,,,,,,,,,,,,,,,,,,NENA_005,001,2020_Sep_09_1349,test7,3.2.4,99.95261772639046,
199,9,Tidningen avskedade dem journalist som publicerade falska fakta.,99,99,99,99,inc,1,no,,,0,8,8,8,0,0,0,0,,,,,,,,,,,,,,,,,,,,,,,,,,,,,,,,,,,,,,,,,,,,,,,,,,,,,,,,,,,,,,,,,,,,,,,,,,,,,,,,,,,,,,,,,,,,,,,,,,,,,,,,,,,,,,,,,,,,,,,,,,,,,,,,,,,,,,,,,,,,,,,,,,,,,,,,,,,,,,,,,,,,,,,,,,,,,,,,,,NENA_005,001,2020_Sep_09_1349,test7,3.2.4,99.95261772639046,
199,9,Tidningen avskedade dem journalist som publicerade falska fakta.,99,99,99,99,inc,1,no,,,0,8,8,8,,,,,,,,,,,,,,,,,,,,,,,,,,,,,,,,,,,,,,,,,,,,,,,,,,,,,,,,,,,,,,,,,,,,,,,,,,,,,,,,,,,,,,,,,,,,,,,,,,,,,,,,,,,,,,,,,,,,,,,,,,,,,,,,120.96733852240914,None,,,,,,,,,,,,,,,,,,,,,,,,,,,,,,,,,,,,,,,,,,,,,,,,,,,,,NENA_005,001,2020_Sep_09_1349,test7,3.2.4,99.95261772639046,
199,10,Bra jobbat!,99,99,99,99,cor,1,no,,,0,9,9,9,0,0,0,0,0,0,0,0,,,,,,,,,,,,,,,,,,,,,,,,,,,,,,,,,,,,,,,,,,,,,,,,,,,,,,,,,,,,,,,,,,,,,,,,,,,,,,,,,,,,,122.46776061057835,None,122.46776061057835,None,122.96772661259502,None,124.46811662719483,124.46811662719483,0.009905312409046019,None,124.46811662719483,124.46811662719483,124.95753587749459,None,125.45828992710312,None,125.45828992710312,None,left,1,1.9965546572107087,125.45828992710312,None,127.46837289501173,None,127.76852376908073,None,127.76852376908073,None,127.76852376908073,None,space,1.3021897908542996,127.76852376908073,None,,,,,,,,,,,,,,,,,,,,,,,,,,,,,,,,,,,,,,,,,,,,,,,,,,,,,,,NENA_005,001,2020_Sep_09_1349,test7,3.2.4,99.95261772639046,
199,10,Bra jobbat!,99,99,99,99,cor,1,no,,,0,9,9,9,0,0,0,0,,,,,,,,,,,,,,,,,,,,,,,,,,,,,,,,,,,,,,,,,,,,,,,,,,,,,,,,,,,,,,,,,,,,,,,,,,,,,,,,,,,,,,,,,,,,,,,,,,,,,,,,,,,,,,,,,,,,,,,,,,,,,,,,,,,,,,,,,,,,,,,,,,,,,,,,,,,,,,,,,,,,,,,,,,,,,,,,,,NENA_005,001,2020_Sep_09_1349,test7,3.2.4,99.95261772639046,
199,10,Bra jobbat!,99,99,99,99,cor,1,no,,,0,9,9,9,,,,,,,,,,,,,,,,,,,,,,,,,,,,,,,,,,,,,,,,,,,,,,,,,,,,,,,,,,,,,,,,,,,,,,,,,,,,,,,,,,,,,,,,,,,,,,,,,,,,,,,,,,,,,,,,,,,,,,,,,,,,,,,,129.08866224992244,None,,,,,,,,,,,,,,,,,,,,,,,,,,,,,,,,,,,,,,,,,,,,,,,,,,,,,NENA_005,001,2020_Sep_09_1349,test7,3.2.4,99.95261772639046,
,,,,,,,,,,,,,,,,,,,,,,,,,,,,,,,,,,,,,,,,,,,,,,,,,,,,,,,,,,,,,,,,,,,,,,,,,,,,,,,,,,,,,,,,,,,,,,,,,,,,,,,,,,,,,,,,,,,,,,,,,,,,,,,,,,,,,,,,,,,,,,,,,130.5892504791791,None,130.5892504791791,None,space,1.4175725311688439,130.5892504791791,None,,,,,,,,,,,,,,,,,,,,,,,,,,,,,,,,,,,,,,,,,,,,,NENA_005,001,2020_Sep_09_1349,test7,3.2.4,99.95261772639046,
,,,,,,,,,,,,,,,,,,,,,,,,,,,,,,,,,,,,,,,,,,,,,,,,,,,,,,,,,,,,,,,,,,,,,,,,,,,,,,,,,,,,,,,,,,,,,,,,,,,,,,,,,,,,,,,,,,,,,,,,,,,,,,,,,,,,,,,,,,,,,,,,,,,,,,,,,132.0193679454187,None,132.0193679454187,None,space,1.9873857860206954,132.0193679454187,None,,,,,,,,,,,,,,,,,,,,,,,,,,,,,,,,,,,,,NENA_005,001,2020_Sep_09_1349,test7,3.2.4,99.95261772639046,
,,,,,,,,,,,,,,,,,,,,,,,,,,,,,,,,,,,,,,,,,,,,,,,,,,,,,,,,,,,,,,,,,,,,,,,,,,,,,,,,,,,,,,,,,,,,,,,,,,,,,,,,,,,,,,,,,,,,,,,,,,,,,,,,,,,,,,,,,,,,,,,,,,,,,,,,,,,,,,,,,134.01973711219853,None,134.01973711219853,None,space,0.9951376469293791,134.01973711219853,None,,,,,,,,,,,,,,,,,,,,,,,,,,,,,NENA_005,001,2020_Sep_09_1349,test7,3.2.4,99.95261772639046,
,,,,,,,,,,,,,,,,,,,,,,,,,,,,,,,,,,,,,,,,,,,,,,,,,,,,,,,,,,,,,,,,,,,,,,,,,,,,,,,,,,,,,,,,,,,,,,,,,,,,,,,,,,,,,,,,,,,,,,,,,,,,,,,,,,,,,,,,,,,,,,,,,,,,,,,,,,,,,,,,,,,,,,,,,135.03001829476398,None,135.03001829476398,None,space,5.216555285852792,135.03001829476398,None,,,,,,,,,,,,,,,,,,,,,NENA_005,001,2020_Sep_09_1349,test7,3.2.4,99.95261772639046,
170,108,Hallonet lyser helt röd bland de gröna bladen. ,4,,0,,inc,1,no,174,199,,,,,,,,,,,,,0,0,0,0,,,,,,,,,,,,,,,,,,,,,,,,,,,,,,,,,,,,,,,,,,,,,,,,,,,,,,,,,,,,,,,,,,,,,,,,,,,,,,,,,,,,,,,,,,,,,145.7613370444592,None,146.26211033820937,None,146.26211033820937,None,right,1,0.8804066415382295,146.26211033820937,None,,,,,,,,,,,,,147.16225377121054,None,,,,,,,,,,,,,,,,,,,,,,,,,,,,,,,,,140.35034023642083,None,140.35034023642083,None,140.77103865763138,None,145.2718863620621,145.2718863620621,0.009860730147920549,None,145.2718863620621,145.2718863620621,148.66254406908388,None,148.66254406908388,None,None,0.00805723335906805,None,,NENA_005,001,2020_Sep_09_1349,test7,3.2.4,99.95261772639046,
170,67,Valet är absolut nödvändigt för landets framtid.  ,4,,0,,cor,1,no,173,199,,,,,,,,,,,,,0,1,1,1,,,,,,,,,,,,,,,,,,,,,,,,,,,,,,,,,,,,,,,,,,,,,,,,,,,,,,,,,,,,,,,,,,,,,,,,,,,,,,,,,,,,,,,,,,,,,153.66276726905107,None,154.16348411332,None,154.16348411332,None,left,1,1.1150783621437768,154.16348411332,None,,,,,,,,,,,,,155.29361909172803,None,,,,,,,,,,,,,,,,,,,,,,,,,,,,,,,,,148.67227483713032,None,148.67227483713032,None,149.17249967284988,None,153.17338714850575,153.17338714850575,0.00987195589732437,None,153.17338714850575,153.17338714850575,156.79403704240644,None,156.79403704240644,None,None,0.007649899032458052,None,,NENA_005,001,2020_Sep_09_1349,test7,3.2.4,99.95261772639046,
180,17,Skjortan som reseledaren inför denna speciella dag hade strukit kvällen innan var otroligt skrynklig på morgonen.  ,14,,0,,cor,1,no,181,199,,,,,,,,,,,,,0,2,2,2,,,,,,,,,,,,,,,,,,,,,,,,,,,,,,,,,,,,,,,,,,,,,,,,,,,,,,,,,,,,,,,,,,,,,,,,,,,,,,,,,,,,,,,,,,,,,166.29507811838494,None,166.79585814758457,None,166.79585814758457,None,right,0,1.1863153627264182,166.79585814758457,None,,,,,,,,,,,,,167.99601870787137,None,,,,,,,,,,,,,,,,,,,,,,,,,,,,,,,,,156.80404556756093,None,156.80404556756093,None,157.30413473208318,None,165.80569190386132,165.80569190386132,0.0098745217828764,None,165.80569190386132,165.80569190386132,169.49634877697076,None,169.49634877697076,None,None,0.008611464633304422,None,,NENA_005,001,2020_Sep_09_1349,test7,3.2.4,99.95261772639046,
130,15,Frisörer klipper ofta hår med en sax.,3,,4,,cor,1,no,131,132,,,,,,,,,,,,,0,3,3,3,,,,,,,,,,,,,,,,,,,,,,,,,,,,,,,,,,,,,,,,,,,,,,,,,,,,,,,,,,,,,,,,,,,,,,,,,,,,,,,,,,,,,,,,,,,,,174.4965851271013,None,174.99730742387646,None,174.99730742387646,None,left,1,0.8248494466670309,174.99730742387646,None,,,,,,,,,,,,,175.8373658362607,None,,,,,,,,,,,,,,,,,,,,,,,,,,,,,,,,,169.50635826433245,None,169.50635826433245,None,170.00645576798252,None,174.0071880075643,174.0071880075643,0.009870672955457849,None,174.0071880075643,174.0071880075643,177.3377930882741,None,177.3377930882741,None,None,0.007575167616778344,None,,NENA_005,001,2020_Sep_09_1349,test7,3.2.4,99.95261772639046,
150,27,Tjejen har vänner men föräldrarna borde inte veta om dem. ,6,,7,,cor,1,no,155,156,,,,,,,,,,,,,0,4,4,4,,,,,,,,,,,,,,,,,,,,,,,,,,,,,,,,,,,,,,,,,,,,,,,,,,,,,,,,,,,,,,,,,,,,,,,,,,,,,,,,,,,,,,,,,,,,,183.83826421693038,None,184.33906701836395,None,184.33906701836395,None,left,1,1.162802870712767,184.33906701836395,None,,,,,,,,,,,,,185.51915658059852,None,,,,,,,,,,,,,,,,,,,,,,,,,,,,,,,,,177.3477939157724,None,177.3477939157724,None,177.84788436323697,None,183.34889339772008,183.34889339772008,0.009878049876078876,None,183.34889339772008,183.34889339772008,187.0195661921491,None,187.0195661921491,None,None,0.007964861481468688,None,,NENA_005,001,2020_Sep_09_1349,test7,3.2.4,99.95261772639046,
160,30,Den torra sommaren orsakade en kraftig aspblomning som de flesta invånarna i de södra stadsdelarna hade inte upplevt förut.,16,,17,,inc,1,no,163,164,,,,,,,,,,,,,0,5,5,5,,,,,,,,,,,,,,,,,,,,,,,,,,,,,,,,,,,,,,,,,,,,,,,,,,,,,,,,,,,,,,,,,,,,,,,,,,,,,,,,,,,,,,,,,,,,,198.02087957272897,None,198.52165671530747,None,198.52165671530747,None,right,1,0.19602627723361365,198.52165671530747,None,,,,,,,,,,,,,198.7314367804297,None,,,,,,,,,,,,,,,,,,,,,,,,,,,,,,,,,187.02957183068247,None,187.02957183068247,None,187.52959845174473,None,197.53146385052196,197.53146385052196,0.009878049876078876,None,197.53146385052196,197.53146385052196,200.23192304781037,None,200.23192304781037,None,None,0.007782042137023382,None,,NENA_005,001,2020_Sep_09_1349,test7,3.2.4,99.95261772639046,
160,47,Många villaägare i Stockholms skärgård anmäler inbrott av ett slag som dagens otroligt billiga och opålitliga larmsystem inte kan hindra.,18,,19,,cor,1,no,161,162,,,,,,,,,,,,,0,6,6,6,,,,,,,,,,,,,,,,,,,,,,,,,,,,,,,,,,,,,,,,,,,,,,,,,,,,,,,,,,,,,,,,,,,,,,,,,,,,,,,,,,,,,,,,,,,,,211.7333666470804,None,212.23416143012219,None,212.23416143012219,None,left,1,0.5952918566490553,212.23416143012219,None,,,,,,,,,,,,,212.84413881184128,None,,,,,,,,,,,,,,,,,,,,,,,,,,,,,,,,,200.24196492947658,None,200.24196492947658,None,200.74207558329,None,211.24395381149452,211.24395381149452,0.009878370611659193,None,211.24395381149452,211.24395381149452,214.3445022374524,None,214.3445022374524,None,None,0.007775627423143305,None,,NENA_005,001,2020_Sep_09_1349,test7,3.2.4,99.95261772639046,
180,31,Munstycket som bara såldes i en eller två affärer i staden var otroligt dyrt och trumpetaren gick hem tomhänt.,14,,0,,cor,1,no,181,199,,,,,,,,,,,,,0,7,7,7,,,,,,,,,,,,,,,,,,,,,,,,,,,,,,,,,,,,,,,,,,,,,,,,,,,,,,,,,,,,,,,,,,,,,,,,,,,,,,,,,,,,,,,,,,,,,225.3458457671868,None,225.84664760641363,None,225.84664760641363,None,right,0,1.0386377457157323,225.84664760641363,None,,,,,,,,,,,,,226.89651911969622,None,,,,,,,,,,,,,,,,,,,,,,,,,,,,,,,,,214.35454379838302,None,214.35454379838302,None,214.8546445093898,None,224.85644511955752,224.85644511955752,0.009872597368485003,None,224.85644511955752,224.85644511955752,228.39710706029086,None,228.39710706029086,None,None,0.007806097314187355,None,,NENA_005,001,2020_Sep_09_1349,test7,3.2.4,99.95261772639046,
150,65,Poeten skrev verk som allmänheten inte fick se.  ,6,,7,,cor,1,no,151,152,,,,,,,,,,,,,0,8,8,8,,,,,,,,,,,,,,,,,,,,,,,,,,,,,,,,,,,,,,,,,,,,,,,,,,,,,,,,,,,,,,,,,,,,,,,,,,,,,,,,,,,,,,,,,,,,,233.89742936758648,None,234.39820779310776,None,234.39820779310776,None,left,1,1.862816854788889,234.39820779310776,None,,,,,,,,,,,,,236.27841301263197,None,,,,,,,,,,,,,,,,,,,,,,,,,,,,,,,,,228.40710147307482,None,228.40710147307482,None,228.90720346702437,None,233.40802647480677,233.40802647480677,0.009878049876078876,None,233.40802647480677,233.40802647480677,237.77885373554432,None,237.77885373554432,None,None,0.008184244692984066,None,,NENA_005,001,2020_Sep_09_1349,test7,3.2.4,99.95261772639046,
170,76,Pianot är redan stämd och mikrofonerna är på plats. ,4,,0,,inc,1,no,174,199,,,,,,,,,,,,,0,9,9,9,,,,,,,,,,,,,,,,,,,,,,,,,,,,,,,,,,,,,,,,,,,,,,,,,,,,,,,,,,,,,,,,,,,,,,,,,,,,,,,,,,,,,,,,,,,,,243.77922832275772,None,244.27996890146733,None,244.27996890146733,None,right,1,1.2370361841176418,244.27996890146733,None,,,,,,,,,,,,,245.53005421716125,None,,,,,,,,,,,,,,,,,,,,,,,,,,,,,,,,,237.78884045067207,None,237.78884045067207,None,238.28877758647695,None,243.28980714804402,243.28980714804402,0.009876766932848113,None,243.28980714804402,243.28980714804402,247.0304907705097,None,247.0304907705097,None,None,0.008596710791152873,None,,NENA_005,001,2020_Sep_09_1349,test7,3.2.4,99.95261772639046,
170,100,Mordet var väldigt hemsk och hela landet sörjde.,4,,0,,inc,1,no,174,199,,,,,,,,,,,,,0,10,10,10,,,,,,,,,,,,,,,,,,,,,,,,,,,,,,,,,,,,,,,,,,,,,,,,,,,,,,,,,,,,,,,,,,,,,,,,,,,,,,,,,,,,,,,,,,,,,252.53081436074808,None,253.0315931070054,None,253.0315931070054,None,left,0,1.7492456296554337,253.0315931070054,None,,,,,,,,,,,,,254.79179057755528,None,,,,,,,,,,,,,,,,,,,,,,,,,,,,,,,,,247.04051180435636,None,247.04051180435636,None,247.54059744078586,None,252.04144771110168,252.04144771110168,0.009878049875624129,None,252.04144771110168,252.04144771110168,256.29221526368315,None,256.29221526368315,None,None,0.007780759194247366,None,,NENA_005,001,2020_Sep_09_1349,test7,3.2.4,99.95261772639046,
130,1,Hönor lägger ofta ägg tidigt på morgonen.,3,,4,,cor,1,no,131,132,,,,,,,,,,,,,0,11,11,11,,,,,,,,,,,,,,,,,,,,,,,,,,,,,,,,,,,,,,,,,,,,,,,,,,,,,,,,,,,,,,,,,,,,,,,,,,,,,,,,,,,,,,,,,,,,,261.2924336526153,None,261.7931934754665,None,261.7931934754665,None,left,1,1.4915444449861752,261.7931934754665,None,,,,,,,,,,,,,263.30342911356365,None,,,,,,,,,,,,,,,,,,,,,,,,,,,,,,,,,256.3022176948598,None,256.3022176948598,None,256.8022917848043,None,260.80299740332384,260.80299740332384,0.009874201047296083,None,260.80299740332384,260.80299740332384,264.8036940733175,None,264.8036940733175,None,None,0.007905204641701857,None,,NENA_005,001,2020_Sep_09_1349,test7,3.2.4,99.95261772639046,
150,60,Hästarna hade stamtavlor men ägarna inte har vetat om dem. ,6,,7,,inc,1,no,157,158,,,,,,,,,,,,,0,12,12,12,,,,,,,,,,,,,,,,,,,,,,,,,,,,,,,,,,,,,,,,,,,,,,,,,,,,,,,,,,,,,,,,,,,,,,,,,,,,,,,,,,,,,,,,,,,,,271.3042569323811,None,271.8050270187746,None,271.8050270187746,None,right,1,1.1515351051630205,271.8050270187746,None,,,,,,,,,,,,,272.97495631579886,None,,,,,,,,,,,,,,,,,,,,,,,,,,,,,,,,,264.81374044528366,None,264.81374044528366,None,265.31379561182257,None,270.8148424931169,270.8148424931169,0.009873880311715766,None,270.8148424931169,270.8148424931169,274.4754999948684,None,274.4754999948684,None,None,0.008342688124230335,None,,NENA_005,001,2020_Sep_09_1349,test7,3.2.4,99.95261772639046,
150,76,Bröderna tog leksaken och lillasystern inte hade sett den.  ,6,,7,,inc,1,no,157,158,,,,,,,,,,,,,0,13,13,13,,,,,,,,,,,,,,,,,,,,,,,,,,,,,,,,,,,,,,,,,,,,,,,,,,,,,,,,,,,,,,,,,,,,,,,,,,,,,,,,,,,,,,,,,,,,,280.4759127496286,None,280.9766991935421,None,280.9766991935421,None,right,1,1.1877105629805556,280.9766991935421,None,,,,,,,,,,,,,282.17668238699207,None,,,,,,,,,,,,,,,,,,,,,,,,,,,,,,,,,274.4855255190146,None,274.4855255190146,None,274.9856089102941,None,279.98655059028215,279.98655059028215,0.00987548398961735,None,279.98655059028215,279.98655059028215,283.67720329382723,None,283.67720329382723,None,None,0.007652144181975018,None,,NENA_005,001,2020_Sep_09_1349,test7,3.2.4,99.95261772639046,
150,15,Snickaren använde trä men kunden ville inte köpa den.  ,6,,7,,cor,1,no,155,156,,,,,,,,,,,,,0,14,14,14,,,,,,,,,,,,,,,,,,,,,,,,,,,,,,,,,,,,,,,,,,,,,,,,,,,,,,,,,,,,,,,,,,,,,,,,,,,,,,,,,,,,,,,,,,,,,289.67761765226624,None,290.1783784373247,None,290.1783784373247,None,right,0,2.2100174095335205,290.1783784373247,None,,,,,,,,,,,,,292.3990282350046,None,,,,,,,,,,,,,,,,,,,,,,,,,,,,,,,,,283.6872031591183,None,283.6872031591183,None,284.1872862296623,None,289.1882019300592,289.1882019300592,0.009881577968371857,None,289.1882019300592,289.1882019300592,293.8990625857966,None,293.8990625857966,None,None,0.008118493875826971,None,,NENA_005,001,2020_Sep_09_1349,test7,3.2.4,99.95261772639046,
170,114,Sjön är ganska förorenat till följd av ansvarslös båttrafik. ,4,,0,,inc,1,no,172,199,,,,,,,,,,,,,0,15,15,15,,,,,,,,,,,,,,,,,,,,,,,,,,,,,,,,,,,,,,,,,,,,,,,,,,,,,,,,,,,,,,,,,,,,,,,,,,,,,,,,,,,,,,,,,,,,,299.899469246579,None,300.400232597523,None,300.400232597523,None,left,0,1.1237414331499167,300.400232597523,None,,,,,,,,,,,,,301.54028183686614,None,,,,,,,,,,,,,,,,,,,,,,,,,,,,,,,,,293.9090345470827,None,293.9090345470827,None,294.4090140199987,None,299.4100926541264,299.4100926541264,0.00987740840537299,None,299.4100926541264,299.4100926541264,303.0407225597785,None,303.0407225597785,None,None,0.00842768308302766,None,,NENA_005,001,2020_Sep_09_1349,test7,3.2.4,99.95261772639046,
160,34,Den nya medicinen mildrar de flesta typer av huvudvärk som många andra liknande substanser på marknaden kan inte klara av.,17,,18,,inc,1,no,163,164,,,,,,,,,,,,,0,16,16,16,,,,,,,,,,,,,,,,,,,,,,,,,,,,,,,,,,,,,,,,,,,,,,,,,,,,,,,,,,,,,,,,,,,,,,,,,,,,,,,,,,,,,,,,,,,,,314.54214723564337,None,315.04292983072855,None,315.04292983072855,None,right,1,1.0489221356383496,315.04292983072855,None,,,,,,,,,,,,,316.10306584832006,None,,,,,,,,,,,,,,,,,,,,,,,,,,,,,,,,,303.05072755684114,None,303.05072755684114,None,303.5508292300551,None,314.0527154766519,314.0527154766519,0.00987965355398046,None,314.0527154766519,314.0527154766519,317.6033840501989,None,317.6033840501989,None,None,0.008616596403044241,None,,NENA_005,001,2020_Sep_09_1349,test7,3.2.4,99.95261772639046,
160,28,Det lilla rådjuret söker en lugn plats som de högljudda arbetarna från den kommunala parkförvaltningen kan inte hitta.,16,,17,,inc,1,no,163,164,,,,,,,,,,,,,0,17,17,17,,,,,,,,,,,,,,,,,,,,,,,,,,,,,,,,,,,,,,,,,,,,,,,,,,,,,,,,,,,,,,,,,,,,,,,,,,,,,,,,,,,,,,,,,,,,,328.10462398230584,None,328.60535301453046,None,328.60535301453046,None,right,1,1.0222160783514482,328.60535301453046,None,,,,,,,,,,,,,329.64544433439687,None,,,,,,,,,,,,,,,,,,,,,,,,,,,,,,,,,317.6133961034461,None,317.6133961034461,None,318.11348719238276,None,327.61522814571117,327.61522814571117,0.009873559575680702,None,327.61522814571117,327.61522814571117,331.14584047504763,None,331.14584047504763,None,None,0.008391760684389737,None,,NENA_005,001,2020_Sep_09_1349,test7,3.2.4,99.95261772639046,
180,36,Biobesöket som de alla hade sett fram emot så mycket den här veckan blev ganska tråkig av någon anledning. ,16,,0,,inc,1,no,182,199,,,,,,,,,,,,,0,18,18,18,,,,,,,,,,,,,,,,,,,,,,,,,,,,,,,,,,,,,,,,,,,,,,,,,,,,,,,,,,,,,,,,,,,,,,,,,,,,,,,,,,,,,,,,,,,,,342.147193626854,None,342.6479101503869,None,342.6479101503869,None,left,0,0.7875389052396713,342.6479101503869,None,,,,,,,,,,,,,343.4480812308043,None,,,,,,,,,,,,,,,,,,,,,,,,,,,,,,,,,331.1558647162515,None,331.1558647162515,None,331.65595805033763,None,341.6577900926027,341.6577900926027,0.009878691347694257,None,341.6577900926027,341.6577900926027,344.9483625480782,None,344.9483625480782,None,None,0.008331783110406832,None,,NENA_005,001,2020_Sep_09_1349,test7,3.2.4,99.95261772639046,
150,73,Gästerna hade gåvor som värdarna inte ville ta emot.  ,6,,7,,cor,1,no,151,152,,,,,,,,,,,,,0,19,19,19,,,,,,,,,,,,,,,,,,,,,,,,,,,,,,,,,,,,,,,,,,,,,,,,,,,,,,,,,,,,,,,,,,,,,,,,,,,,,,,,,,,,,,,,,,,,,350.95878353933085,None,351.45954881468924,None,351.45954881468924,None,left,1,0.9436961324408912,351.45954881468924,None,,,,,,,,,,,,,352.41961048574785,None,,,,,,,,,,,,,,,,,,,,,,,,,,,,,,,,,344.95839224178826,None,344.95839224178826,None,345.4584740293899,None,350.46941079570706,350.46941079570706,0.009870993691038166,None,350.46941079570706,350.46941079570706,353.9200188143552,None,353.9200188143552,None,None,0.007625523119713762,None,,NENA_005,001,2020_Sep_09_1349,test7,3.2.4,99.95261772639046,
170,98,Skyskrapan var ganska högt men det fanns några högre. ,4,,0,,inc,1,no,172,199,,,,,,,,,,,,,0,20,20,20,,,,,,,,,,,,,,,,,,,,,,,,,,,,,,,,,,,,,,,,,,,,,,,,,,,,,,,,,,,,,,,,,,,,,,,,,,,,,,,,,,,,,,,,,,,,,359.92043990824413,None,360.4212048628665,None,360.4212048628665,None,right,1,0.8140884435088083,360.4212048628665,None,,,,,,,,,,,,,361.2512184748889,None,,,,,,,,,,,,,,,,,,,,,,,,,,,,,,,,,353.93001835891073,None,353.93001835891073,None,354.43009693915565,None,359.4310200164732,359.4310200164732,0.009878370612568688,None,359.4310200164732,359.4310200164732,362.75164508543116,None,362.75164508543116,None,None,0.007842019711461035,None,,NENA_005,001,2020_Sep_09_1349,test7,3.2.4,99.95261772639046,
140,56,Bin samlar ofta honung från omgivande blomsteräng.,3,,4,,inc,1,no,135,136,,,,,,,,,,,,,0,21,21,21,,,,,,,,,,,,,,,,,,,,,,,,,,,,,,,,,,,,,,,,,,,,,,,,,,,,,,,,,,,,,,,,,,,,,,,,,,,,,,,,,,,,,,,,,,,,,367.7518698890767,None,368.25264157914853,None,368.25264157914853,None,right,1,1.4543381426583437,368.25264157914853,None,,,,,,,,,,,,,369.7231178588195,None,,,,,,,,,,,,,,,,,,,,,,,,,,,,,,,,,362.76163532865166,None,362.76163532865166,None,363.26165681794237,None,367.2624727695397,367.2624727695397,0.009878370610749698,None,367.2624727695397,367.2624727695397,371.2231720952252,None,371.2231720952252,None,None,0.00806557248779427,None,,NENA_005,001,2020_Sep_09_1349,test7,3.2.4,99.95261772639046,
150,21,Astronomen upptäckte en planet som forskarna inte hade känt till.  ,6,,7,,cor,1,no,151,152,,,,,,,,,,,,,0,22,22,22,,,,,,,,,,,,,,,,,,,,,,,,,,,,,,,,,,,,,,,,,,,,,,,,,,,,,,,,,,,,,,,,,,,,,,,,,,,,,,,,,,,,,,,,,,,,,377.7236826743715,None,378.2244521192929,None,378.2244521192929,None,left,1,0.978430524801297,378.2244521192929,None,,,,,,,,,,,,,379.2145131617094,None,,,,,,,,,,,,,,,,,,,,,,,,,,,,,,,,,371.23317997890854,None,371.23317997890854,None,371.7332835765369,None,377.2342804230634,377.2342804230634,0.00987195589732437,None,377.2342804230634,377.2342804230634,380.71491186824665,None,380.71491186824665,None,None,0.008560467657844129,None,,NENA_005,001,2020_Sep_09_1349,test7,3.2.4,99.95261772639046,
180,40,Fatet som med sina präglade mönster runt kanten såg väldigt inbjudande ut var otroligt kladdig efter kalaset.  ,15,,0,,inc,1,no,182,199,,,,,,,,,,,,,0,23,23,23,,,,,,,,,,,,,,,,,,,,,,,,,,,,,,,,,,,,,,,,,,,,,,,,,,,,,,,,,,,,,,,,,,,,,,,,,,,,,,,,,,,,,,,,,,,,,390.71605237228914,None,391.2168282319258,None,391.2168282319258,None,left,0,2.1378461058839093,391.2168282319258,None,,,,,,,,,,,,,393.36707173446166,None,,,,,,,,,,,,,,,,,,,,,,,,,,,,,,,,,380.7249191104588,None,380.7249191104588,None,381.22500602983064,None,390.2266401781749,390.2266401781749,0.009873238840555132,None,390.2266401781749,390.2266401781749,394.86748743999055,None,394.86748743999055,None,None,0.008576825179261505,None,,NENA_005,001,2020_Sep_09_1349,test7,3.2.4,99.95261772639046,
150,10,Syskonen fick godis som systern ville inte ha.  ,6,,7,,inc,1,no,153,154,,,,,,,,,,,,,0,24,24,24,,,,,,,,,,,,,,,,,,,,,,,,,,,,,,,,,,,,,,,,,,,,,,,,,,,,,,,,,,,,,,,,,,,,,,,,,,,,,,,,,,,,,,,,,,,,,400.3677959556512,None,400.8684614822091,None,400.8684614822091,None,right,1,1.853977058417513,400.8684614822091,None,,,,,,,,,,,,,402.73867257761185,None,,,,,,,,,,,,,,,,,,,,,,,,,,,,,,,,,394.87750205912334,None,394.87750205912334,None,395.3775892992312,None,399.87842770232646,399.87842770232646,0.009876446197267796,None,399.87842770232646,399.87842770232646,404.23919861621766,None,404.23919861621766,None,None,0.007752855189210095,None,,NENA_005,001,2020_Sep_09_1349,test7,3.2.4,99.95261772639046,
170,16,Fartyget är kraftigt skadad och måste bogseras.  ,4,,0,,inc,1,no,174,199,,,,,,,,,,,,,0,25,25,25,,,,,,,,,,,,,,,,,,,,,,,,,,,,,,,,,,,,,,,,,,,,,,,,,,,,,,,,,,,,,,,,,,,,,,,,,,,,,,,,,,,,,,,,,,,,,409.2394506823971,None,409.74021467481225,None,409.74021467481225,None,left,0,0.8701180820517038,409.74021467481225,None,,,,,,,,,,,,,410.62009146098944,None,,,,,,,,,,,,,,,,,,,,,,,,,,,,,,,,,404.2492190085936,None,404.2492190085936,None,404.7492953436872,None,408.7500240551767,408.7500240551767,0.00987676693330286,None,408.7500240551767,408.7500240551767,412.12063802667967,None,412.12063802667967,None,None,0.007867357830946275,None,,NENA_005,001,2020_Sep_09_1349,test7,3.2.4,99.95261772639046,
160,24,En polisassistent från förorten arresterade tre misstänkta smugglare som de äldre kollegorna på polisstationen hade inte upptäckt.,15,,16,,inc,1,no,163,164,,,,,,,,,,,,,0,26,26,26,,,,,,,,,,,,,,,,,,,,,,,,,,,,,,,,,,,,,,,,,,,,,,,,,,,,,,,,,,,,,,,,,,,,,,,,,,,,,,,,,,,,,,,,,,,,,422.1217714745376,None,422.6225534281516,None,422.6225534281516,None,right,1,0.8915878084508222,422.6225534281516,None,,,,,,,,,,,,,423.5325998963385,None,,,,,,,,,,,,,,,,,,,,,,,,,,,,,,,,,412.1306580983196,None,412.1306580983196,None,412.6307058879379,None,421.6323429229028,421.6323429229028,0.009873238840555132,None,421.6323429229028,421.6323429229028,425.033004055382,None,425.033004055382,None,None,0.007725271920207888,None,,NENA_005,001,2020_Sep_09_1349,test7,3.2.4,99.95261772639046,
180,25,Pennan som hade använts flera gånger tidigare på de många lektionerna var återigen vässad och matematikboken låg på bordet.,14,,0,,cor,1,no,181,199,,,,,,,,,,,,,0,27,27,27,,,,,,,,,,,,,,,,,,,,,,,,,,,,,,,,,,,,,,,,,,,,,,,,,,,,,,,,,,,,,,,,,,,,,,,,,,,,,,,,,,,,,,,,,,,,,436.0343110212484,None,436.5351112567964,None,436.5351112567964,None,left,1,0.9388482124759321,436.5351112567964,None,,,,,,,,,,,,,437.4850052857241,None,,,,,,,,,,,,,,,,,,,,,,,,,,,,,,,,,425.0430116183293,None,425.0430116183293,None,425.54297280931087,None,435.5449055625836,435.5449055625836,0.009878691346784763,None,435.5449055625836,435.5449055625836,438.9855480025865,None,438.9855480025865,None,None,0.007676199359593738,None,,NENA_005,001,2020_Sep_09_1349,test7,3.2.4,99.95261772639046,
160,2,Den höga ljudnivån gav allvarliga skador på husgrunden som de flesta boende i de gamla radhusen kunde inte upptäcka direkt.,17,,18,,inc,1,no,163,164,,,,,,,,,,,,,0,28,28,28,,,,,,,,,,,,,,,,,,,,,,,,,,,,,,,,,,,,,,,,,,,,,,,,,,,,,,,,,,,,,,,,,,,,,,,,,,,,,,,,,,,,,,,,,,,,,450.4869505476886,None,450.9877427648439,None,450.9877427648439,None,right,1,1.2859413207634134,450.9877427648439,None,,,,,,,,,,,,,452.2877178757549,None,,,,,,,,,,,,,,,,,,,,,,,,,,,,,,,,,438.99556935716873,None,438.99556935716873,None,439.495635107985,None,449.9974799796787,449.9974799796787,0.009876766932393366,None,449.9974799796787,449.9974799796787,453.7881951625361,None,453.7881951625361,None,None,0.007743553855107166,None,,NENA_005,001,2020_Sep_09_1349,test7,3.2.4,99.95261772639046,
170,60,Lammet är verkligen gullig och kallas Maja.,4,,0,,inc,1,no,174,199,,,,,,,,,,,,,0,29,29,29,,,,,,,,,,,,,,,,,,,,,,,,,,,,,,,,,,,,,,,,,,,,,,,,,,,,,,,,,,,,,,,,,,,,,,,,,,,,,,,,,,,,,,,,,,,,,458.78848315111236,None,459.28916984622674,None,459.28916984622674,None,left,0,1.1523218698121127,459.28916984622674,None,,,,,,,,,,,,,460.45929799937903,None,,,,,,,,,,,,,,,,,,,,,,,,,,,,,,,,,453.7982466662729,None,453.7982466662729,None,454.29835988597233,None,458.29907448509084,458.29907448509084,0.009879012082819827,None,458.29907448509084,458.29907448509084,461.9597390430274,None,461.9597390430274,None,None,0.007929901290481212,None,,NENA_005,001,2020_Sep_09_1349,test7,3.2.4,99.95261772639046,
150,16,Forskaren gav en föreläsning men studenterna inte kunde följa den.  ,6,,7,,inc,1,no,157,158,,,,,,,,,,,,,0,30,30,30,,,,,,,,,,,,,,,,,,,,,,,,,,,,,,,,,,,,,,,,,,,,,,,,,,,,,,,,,,,,,,,,,,,,,,,,,,,,,,,,,,,,,,,,,,,,,468.44022288564656,None,468.9410093295596,None,468.9410093295596,None,right,1,2.084356694010239,468.9410093295596,None,,,,,,,,,,,,,471.04126360881537,None,,,,,,,,,,,,,,,,,,,,,,,,,,,,,,,,,461.9697472474468,None,461.9697472474468,None,462.46979407485696,None,467.95083667112294,467.95083667112294,0.009875483990981593,None,467.95083667112294,467.95083667112294,472.5416652019733,None,472.5416652019733,None,None,0.008597993733928888,None,,NENA_005,001,2020_Sep_09_1349,test7,3.2.4,99.95261772639046,
140,74,Journalister tar ofta bilder av framstående människa.,3,,4,,inc,1,no,137,138,,,,,,,,,,,,,0,31,31,31,,,,,,,,,,,,,,,,,,,,,,,,,,,,,,,,,,,,,,,,,,,,,,,,,,,,,,,,,,,,,,,,,,,,,,,,,,,,,,,,,,,,,,,,,,,,,477.55192133508126,None,478.0526532539275,None,478.0526532539275,None,right,1,1.0766567922837567,478.0526532539275,None,,,,,,,,,,,,,479.1425410349243,None,,,,,,,,,,,,,,,,,,,,,,,,,,,,,,,,,472.5516676331504,None,472.5516676331504,None,473.0517567976726,None,477.0625242155443,477.0625242155443,0.009877087669337925,None,477.0625242155443,477.0625242155443,480.64315174775334,None,480.64315174775334,None,None,0.0076072411857239786,None,,NENA_005,001,2020_Sep_09_1349,test7,3.2.4,99.95261772639046,
170,35,Strandbadet var helt tomt och solen strålade.  ,4,,0,,cor,1,no,173,199,,,,,,,,,,,,,0,32,32,32,,,,,,,,,,,,,,,,,,,,,,,,,,,,,,,,,,,,,,,,,,,,,,,,,,,,,,,,,,,,,,,,,,,,,,,,,,,,,,,,,,,,,,,,,,,,,485.64337109889175,None,486.14415786354084,None,486.14415786354084,None,left,1,1.360966209853359,486.14415786354084,None,,,,,,,,,,,,,487.5240872503714,None,,,,,,,,,,,,,,,,,,,,,,,,,,,,,,,,,480.65304320438054,None,480.65304320438054,None,481.15308297560614,None,485.153924265323,485.153924265323,0.009877729139589064,None,485.153924265323,485.153924265323,489.0246806434727,None,489.0246806434727,None,None,0.007800324070558418,None,,NENA_005,001,2020_Sep_09_1349,test7,3.2.4,99.95261772639046,
140,16,Pirater hittar ibland skatter nedgrävda i market.,3,,4,,inc,1,no,131,132,,,,,,,,,,,,,0,33,33,33,,,,,,,,,,,,,,,,,,,,,,,,,,,,,,,,,,,,,,,,,,,,,,,,,,,,,,,,,,,,,,,,,,,,,,,,,,,,,,,,,,,,,,,,,,,,,494.0249192387532,None,494.52568098601887,None,494.52568098601887,None,right,1,1.9954744194046725,494.52568098601887,None,,,,,,,,,,,,,496.53629252634573,None,,,,,,,,,,,,,,,,,,,,,,,,,,,,,,,,,489.0346971870199,None,489.0346971870199,None,489.53476101342267,None,493.53550191286786,493.53550191286786,0.009878049875624129,None,493.53550191286786,493.53550191286786,498.0362883888549,None,498.0362883888549,None,None,0.008026763469388243,None,,NENA_005,001,2020_Sep_09_1349,test7,3.2.4,99.95261772639046,
170,40,Päronet är för besk för barnen.  ,4,,0,,inc,1,no,174,199,,,,,,,,,,,,,0,34,34,34,,,,,,,,,,,,,,,,,,,,,,,,,,,,,,,,,,,,,,,,,,,,,,,,,,,,,,,,,,,,,,,,,,,,,,,,,,,,,,,,,,,,,,,,,,,,,502.5364400647627,None,503.03723837589723,None,503.03723837589723,None,left,0,0.4116908800724559,503.03723837589723,None,,,,,,,,,,,,,503.4671117622761,None,,,,,,,,,,,,,,,,,,,,,,,,,,,,,,,,,498.0463517598123,None,498.0463517598123,None,498.5463770979318,None,502.0470480769968,502.0470480769968,0.00987740840537299,None,502.0470480769968,502.0470480769968,504.9675896905285,None,504.9675896905285,None,None,0.00805434673839045,None,,NENA_005,001,2020_Sep_09_1349,test7,3.2.4,99.95261772639046,
160,7,Den snälla grannen bakade saftiga bullar med blåbär som den gamla tanten med mycket dålig syn inte kunde se.,17,,18,,cor,1,no,161,162,,,,,,,,,,,,,0,35,35,35,,,,,,,,,,,,,,,,,,,,,,,,,,,,,,,,,,,,,,,,,,,,,,,,,,,,,,,,,,,,,,,,,,,,,,,,,,,,,,,,,,,,,,,,,,,,,515.9689207115712,None,516.4696975334141,None,516.4696975334141,None,left,1,0.8670306802932828,516.4696975334141,None,,,,,,,,,,,,,517.3498200031304,None,,,,,,,,,,,,,,,,,,,,,,,,,,,,,,,,,504.9775850655201,None,504.9775850655201,None,505.47769187050517,None,515.4795030649507,515.4795030649507,0.00987708766842843,None,515.4795030649507,515.4795030649507,518.8500785481704,None,518.8500785481704,None,None,0.00797704943761346,None,,NENA_005,001,2020_Sep_09_1349,test7,3.2.4,99.95261772639046,
170,101,Boken är ganska sliten efter sommaren på stranden. ,4,,0,,cor,1,no,171,199,,,,,,,,,,,,,0,36,36,36,,,,,,,,,,,,,,,,,,,,,,,,,,,,,,,,,,,,,,,,,,,,,,,,,,,,,,,,,,,,,,,,,,,,,,,,,,,,,,,,,,,,,,,,,,,,,524.350419778872,None,524.8512212973633,None,524.8512212973633,None,left,1,2.3732436513573703,524.8512212973633,None,,,,,,,,,,,,,527.2415678586917,None,,,,,,,,,,,,,,,,,,,,,,,,,,,,,,,,,518.8600633388846,None,518.8600633388846,None,519.3602041418521,None,523.8610447900978,523.8610447900978,0.009874521783785895,None,523.8610447900978,523.8610447900978,528.741934170924,None,528.741934170924,None,None,0.008580353271099739,None,,NENA_005,001,2020_Sep_09_1349,test7,3.2.4,99.95261772639046,
170,9,Processen är mycket skadlig för miljön.  ,4,,0,,cor,1,no,171,199,,,,,,,,,,,,,0,37,37,37,,,,,,,,,,,,,,,,,,,,,,,,,,,,,,,,,,,,,,,,,,,,,,,,,,,,,,,,,,,,,,,,,,,,,,,,,,,,,,,,,,,,,,,,,,,,,533.2420794321183,None,533.7428864031158,None,533.7428864031158,None,left,1,1.0975363650122745,533.7428864031158,None,,,,,,,,,,,,,534.8530000975038,None,,,,,,,,,,,,,,,,,,,,,,,,,,,,,,,,,528.7519327532723,None,528.7519327532723,None,529.2518910576323,None,532.7526560122546,532.7526560122546,0.009879012082819827,None,532.7526560122546,532.7526560122546,536.3533327324888,None,536.3533327324888,None,None,0.008684913106662862,None,,NENA_005,001,2020_Sep_09_1349,test7,3.2.4,99.95261772639046,
150,50,Riksdagen fattar beslut som kommunerna kan inte genomföra.  ,6,,7,,inc,1,no,153,154,,,,,,,,,,,,,0,38,38,38,,,,,,,,,,,,,,,,,,,,,,,,,,,,,,,,,,,,,,,,,,,,,,,,,,,,,,,,,,,,,,,,,,,,,,,,,,,,,,,,,,,,,,,,,,,,,541.8536242491577,None,542.3544158248428,None,542.3544158248428,None,right,1,1.325862971449169,542.3544158248428,None,,,,,,,,,,,,,543.6943979021321,None,,,,,,,,,,,,,,,,,,,,,,,,,,,,,,,,,536.3631898703975,None,536.3631898703975,None,536.8634224037728,None,541.3642072440084,541.3642072440084,0.009879332818854891,None,541.3642072440084,541.3642072440084,545.1949402982584,None,545.1949402982584,None,None,0.0077785140447304,None,,NENA_005,001,2020_Sep_09_1349,test7,3.2.4,99.95261772639046,
150,47,Djuren fick rättigheter men djurrättsaktivisterna hade inte krävt dessa från början. ,6,,7,,cor,1,no,155,156,,,,,,,,,,,,,0,39,39,39,,,,,,,,,,,,,,,,,,,,,,,,,,,,,,,,,,,,,,,,,,,,,,,,,,,,,,,,,,,,,,,,,,,,,,,,,,,,,,,,,,,,,,,,,,,,,552.1954970633437,None,552.6963191089194,None,552.6963191089194,None,left,1,1.4636904746630535,552.6963191089194,None,,,,,,,,,,,,,554.1772279584015,None,,,,,,,,,,,,,,,,,,,,,,,,,,,,,,,,,545.2049475404706,None,545.2049475404706,None,545.7050283658641,None,551.7061223953056,551.7061223953056,0.009878370611659193,None,551.7061223953056,551.7061223953056,555.676795318029,None,555.676795318029,None,None,0.008186810578990844,None,,NENA_005,001,2020_Sep_09_1349,test7,3.2.4,99.95261772639046,
180,57,Cykeln som med sina löstagbara delar snabbt och enkelt kunde fällas ihop låg äntligen nerpackad i bagaget.  ,15,,0,,cor,1,no,181,199,,,,,,,,,,,,,0,40,40,40,,,,,,,,,,,,,,,,,,,,,,,,,,,,,,,,,,,,,,,,,,,,,,,,,,,,,,,,,,,,,,,,,,,,,,,,,,,,,,,,,,,,,,,,,,,,,565.6779634053405,None,566.1787668482461,None,566.1787668482461,None,left,1,0.6530457702665444,566.1787668482461,None,,,,,,,,,,,,,566.848846570309,None,,,,,,,,,,,,,,,,,,,,,,,,,,,,,,,,,555.6868006358268,None,555.6868006358268,None,556.1867948625845,None,565.188600925258,565.188600925258,0.009874842519820959,None,565.188600925258,565.188600925258,568.349124359491,None,568.349124359491,None,None,0.008007198592167697,None,,NENA_005,001,2020_Sep_09_1349,test7,3.2.4,99.95261772639046,
150,34,Darknet är webbsidor som sökmotorer kan inte hitta.  ,6,,7,,inc,1,no,153,154,,,,,,,,,,,,,0,41,41,41,,,,,,,,,,,,,,,,,,,,,,,,,,,,,,,,,,,,,,,,,,,,,,,,,,,,,,,,,,,,,,,,,,,,,,,,,,,,,,,,,,,,,,,,,,,,,573.8494575718,None,574.3502760892829,None,574.3502760892829,None,right,1,1.193441147566773,574.3502760892829,None,,,,,,,,,,,,,575.5602232576998,None,,,,,,,,,,,,,,,,,,,,,,,,,,,,,,,,,568.3591662411577,None,568.3591662411577,None,568.859218521075,None,573.3600752061052,573.3600752061052,0.009872597369394498,None,573.3600752061052,573.3600752061052,577.0607428815922,None,577.0607428815922,None,None,0.008281748342596984,None,,NENA_005,001,2020_Sep_09_1349,test7,3.2.4,99.95261772639046,
130,21,Skomakare lagar ofta skor åt äldre kunder.,3,,4,,cor,1,no,131,132,,,,,,,,,,,,,0,42,42,42,,,,,,,,,,,,,,,,,,,,,,,,,,,,,,,,,,,,,,,,,,,,,,,,,,,,,,,,,,,,,,,,,,,,,,,,,,,,,,,,,,,,,,,,,,,,,582.0609840427583,None,582.5617682415218,None,582.5617682415218,None,left,1,1.637905121251606,582.5617682415218,None,,,,,,,,,,,,,584.2119129574653,None,,,,,,,,,,,,,,,,,,,,,,,,,,,,,,,,,577.0707446712972,None,577.0707446712972,None,577.5706959194727,None,581.5715926964635,581.5715926964635,0.009878370610749698,None,581.5715926964635,581.5715926964635,585.7123475864003,None,585.7123475864003,None,None,0.008733664932151441,None,,NENA_005,001,2020_Sep_09_1349,test7,3.2.4,99.95261772639046,
160,45,Den lite undanskymda båten inrymde ett flertal rum som den utmattade konstnären från södra Stockholm inte ville hyra.,16,,17,,cor,1,yes,161,162,,,,,,,,,,,,,0,43,43,43,,,,,,,,,,,,,,,,,,,,,,,,,,,,,,,,,,,,,,,,,,,,,,,,,,,,,,,,,,,,,,,,,,,,,,,,,,,,,,,,,,,,,,,,,,,,,596.2135599352373,None,596.714345096208,None,596.714345096208,None,left,1,1.4691311141841652,596.714345096208,None,,,,,,,,,,,,,598.1944213158372,None,,,,,,,,,,,,,,,,,,,,,,,,,,,,,,,,,585.7222954925087,None,585.7222954925087,None,586.2224093536793,None,595.7241634571715,595.7241634571715,0.009879332818854891,None,595.7241634571715,595.7241634571715,599.6948677799187,None,599.6948677799187,None,space,0.008644179673865438,None,99.16750164858149,NENA_005,001,2020_Sep_09_1349,test7,3.2.4,99.95261772639046,
170,18,Kakan är för sött för morföräldrarna.  ,4,,0,,inc,1,no,172,199,,,,,,,,,,,,,0,44,44,44,,,,,,,,,,,,,,,,,,,,,,,,,,,,,,,,,,,,,,,,,,,,,,,,,,,,,,,,,,,,,,,,,,,,,,,,,,,,,,,,,,,,,,,,,,,,,703.3631084035319,None,703.8638868290532,None,703.8638868290532,None,left,0,0.9657977081506033,703.8638868290532,None,,,,,,,,,,,,,704.8439415593916,None,,,,,,,,,,,,,,,,,,,,,,,,,,,,,,,,,698.8739252147002,None,698.8739252147002,None,699.3730691711421,None,702.8737449612422,702.8737449612422,0.009870672955003101,None,702.8737449612422,702.8737449612422,706.3443742639113,None,706.3443742639113,None,None,0.007645729469004436,None,,NENA_005,001,2020_Sep_09_1349,test7,3.2.4,99.95261772639046,
150,33,Barn berättar saker som lärare inte kan veta om.  ,6,,7,,cor,1,no,151,152,,,,,,,,,,,,,0,45,45,45,,,,,,,,,,,,,,,,,,,,,,,,,,,,,,,,,,,,,,,,,,,,,,,,,,,,,,,,,,,,,,,,,,,,,,,,,,,,,,,,,,,,,,,,,,,,,712.3447661708519,None,712.845456073323,None,712.845456073323,None,left,1,0.8081394379169069,712.845456073323,None,,,,,,,,,,,,,713.6656048177069,None,,,,,,,,,,,,,,,,,,,,,,,,,,,,,,,,,706.3543673937534,None,706.3543673937534,None,706.8544408422263,None,711.855364881751,711.855364881751,0.009878691347694257,None,711.855364881751,711.855364881751,715.1659624700753,None,715.1659624700753,None,None,0.007883715350544662,None,,NENA_005,001,2020_Sep_09_1349,test7,3.2.4,99.95261772639046,
170,50,Älgen är väldigt utbrett i Sverige.  ,4,,0,,inc,1,no,172,199,,,,,,,,,,,,,0,46,46,46,,,,,,,,,,,,,,,,,,,,,,,,,,,,,,,,,,,,,,,,,,,,,,,,,,,,,,,,,,,,,,,,,,,,,,,,,,,,,,,,,,,,,,,,,,,,,719.6661096556841,None,720.166881987227,None,720.166881987227,None,right,1,0.8945469159334607,720.166881987227,None,,,,,,,,,,,,,721.0774137285139,None,,,,,,,,,,,,,,,,,,,,,,,,,,,,,,,,,715.1759847868648,None,715.1759847868648,None,715.6759344313609,None,719.1766987445121,719.1766987445121,0.009876446198177291,None,719.1766987445121,719.1766987445121,722.5773194642945,None,722.5773194642945,None,None,0.007943051454276429,None,,NENA_005,001,2020_Sep_09_1349,test7,3.2.4,99.95261772639046,
140,72,Inbrottstjuvar stjäl ofta saker när folk är bortrest.,3,,4,,inc,1,no,137,138,,,,,,,,,,,,,0,47,47,47,,,,,,,,,,,,,,,,,,,,,,,,,,,,,,,,,,,,,,,,,,,,,,,,,,,,,,,,,,,,,,,,,,,,,,,,,,,,,,,,,,,,,,,,,,,,,728.0776122639068,None,728.5784278947681,None,728.5784278947681,None,right,1,0.6750985941507679,728.5784278947681,None,,,,,,,,,,,,,729.2687367375788,None,,,,,,,,,,,,,,,,,,,,,,,,,,,,,,,,,722.5873170844357,None,722.5873170844357,None,723.0873966268869,None,727.5882327848326,727.5882327848326,0.00987676693330286,None,727.5882327848326,727.5882327848326,730.7688214438751,None,730.7688214438751,None,None,0.008112399897981959,None,,NENA_005,001,2020_Sep_09_1349,test7,3.2.4,99.95261772639046,
130,27,Apor äter gärna bananer från de omgivande plantagen.,3,,4,,cor,1,no,133,134,,,,,,,,,,,,,0,48,48,48,,,,,,,,,,,,,,,,,,,,,,,,,,,,,,,,,,,,,,,,,,,,,,,,,,,,,,,,,,,,,,,,,,,,,,,,,,,,,,,,,,,,,,,,,,,,,736.2691331668925,None,736.7699151205065,None,736.7699151205065,None,left,1,1.0754357515097581,736.7699151205065,None,,,,,,,,,,,,,737.8599568546347,None,,,,,,,,,,,,,,,,,,,,,,,,,,,,,,,,,730.7788267616729,None,730.7788267616729,None,731.2788296482945,None,735.7797376510348,735.7797376510348,0.009872597369394498,None,735.7797376510348,735.7797376510348,739.3603722394275,None,739.3603722394275,None,None,0.008316708533129713,None,,NENA_005,001,2020_Sep_09_1349,test7,3.2.4,99.95261772639046,
170,43,Skåpet är väldigt modernt och passar bra i vardagsrummet. ,4,,0,,cor,1,no,173,199,,,,,,,,,,,,,0,49,49,49,,,,,,,,,,,,,,,,,,,,,,,,,,,,,,,,,,,,,,,,,,,,,,,,,,,,,,,,,,,,,,,,,,,,,,,,,,,,,,,,,,,,,,,,,,,,,745.3608080871577,None,745.8615448170399,None,745.8615448170399,None,left,1,0.8475267429421365,745.8615448170399,None,,,,,,,,,,,,,746.7214923703391,None,,,,,,,,,,,,,,,,,,,,,,,,,,,,,,,,,739.3703660107408,None,739.3703660107408,None,739.8704535715847,None,744.8714039114361,744.8714039114361,0.009878049875624129,None,744.8714039114361,744.8714039114361,748.2219975611263,None,748.2219975611263,None,None,0.007575488352813409,None,,NENA_005,001,2020_Sep_09_1349,test7,3.2.4,99.95261772639046,
140,34,Matematiker löser gärna problem som intressera allmänheten.,3,,4,,inc,1,no,133,134,,,,,,,,,,,,,0,50,50,50,,,,,,,,,,,,,,,,,,,,,,,,,,,,,,,,,,,,,,,,,,,,,,,,,,,,,,,,,,,,,,,,,,,,,,,,,,,,,,,,,,,,,,,,,,,,,753.2222204403574,None,753.7230033561787,None,753.7230033561787,None,right,1,1.3859694813572787,753.7230033561787,None,,,,,,,,,,,,,755.1231307523944,None,,,,,,,,,,,,,,,,,,,,,,,,,,,,,,,,,748.2320012752448,None,748.2320012752448,None,748.7321019862525,None,752.7327925301938,752.7327925301938,0.009878370610749698,None,752.7327925301938,752.7327925301938,756.6235275345173,None,756.6235275345173,None,None,0.007759269902635424,None,,NENA_005,001,2020_Sep_09_1349,test7,3.2.4,99.95261772639046,
170,49,Utställningen är väldigt populär och har ett gott rykte. ,4,,0,,cor,1,no,171,199,,,,,,,,,,,,,0,51,51,51,,,,,,,,,,,,,,,,,,,,,,,,,,,,,,,,,,,,,,,,,,,,,,,,,,,,,,,,,,,,,,,,,,,,,,,,,,,,,,,,,,,,,,,,,,,,,762.6239444588423,None,763.1246407760268,None,763.1246407760268,None,left,1,0.5361966263735667,763.1246407760268,None,,,,,,,,,,,,,763.6747445019487,None,,,,,,,,,,,,,,,,,,,,,,,,,,,,,,,,,756.6335424743861,None,756.6335424743861,None,757.1336354877362,None,762.1345357928199,762.1345357928199,0.009870993690128671,None,762.1345357928199,762.1345357928199,765.1750950981325,None,765.1750950981325,None,None,0.007968710309796734,None,,NENA_005,001,2020_Sep_09_1349,test7,3.2.4,99.95261772639046,
170,45,Tanden var ganska inflammerad och fick behandlas.  ,4,,0,,cor,1,no,171,199,,,,,,,,,,,,,0,52,52,52,,,,,,,,,,,,,,,,,,,,,,,,,,,,,,,,,,,,,,,,,,,,,,,,,,,,,,,,,,,,,,,,,,,,,,,,,,,,,,,,,,,,,,,,,,,,,770.1752942429225,None,770.6761114774622,None,770.6761114774622,None,left,1,0.7845159713551766,770.6761114774622,None,,,,,,,,,,,,,771.4764640942808,None,,,,,,,,,,,,,,,,,,,,,,,,,,,,,,,,,765.1850866242953,None,765.1850866242953,None,765.685085020617,None,769.6859141223772,769.6859141223772,0.009877729139589064,None,769.6859141223772,769.6859141223772,772.9764529006054,None,772.9764529006054,None,None,0.008015537719984422,None,,NENA_005,001,2020_Sep_09_1349,test7,3.2.4,99.95261772639046,
180,35,Staketet som löper runt hela odlingen för att hålla obehöriga på avstånd är för högt för nyfikna rådjur. ,15,,0,,cor,1,no,181,199,,,,,,,,,,,,,0,53,53,53,,,,,,,,,,,,,,,,,,,,,,,,,,,,,,,,,,,,,,,,,,,,,,,,,,,,,,,,,,,,,,,,,,,,,,,,,,,,,,,,,,,,,,,,,,,,,783.4677500263001,None,783.9685367909501,None,783.9685367909501,None,left,1,1.0441819828656662,783.9685367909501,None,,,,,,,,,,,,,785.0285990393327,None,,,,,,,,,,,,,,,,,,,,,,,,,,,,,,,,,772.9865088946422,None,772.9865088946422,None,773.4866336608261,None,782.9783416810146,782.9783416810146,0.009878049875624129,None,782.9783416810146,782.9783416810146,786.5290019154338,None,786.5290019154338,None,None,0.008017782870410883,None,,NENA_005,001,2020_Sep_09_1349,test7,3.2.4,99.95261772639046,
140,66,Barn äter ofta mat med för mycket sockret.,3,,4,,inc,1,no,137,138,,,,,,,,,,,,,0,54,54,54,,,,,,,,,,,,,,,,,,,,,,,,,,,,,,,,,,,,,,,,,,,,,,,,,,,,,,,,,,,,,,,,,,,,,,,,,,,,,,,,,,,,,,,,,,,,,792.0292780367895,None,792.530099120158,None,792.530099120158,None,right,1,0.6422430714674192,792.530099120158,None,,,,,,,,,,,,,793.1898508322452,None,,,,,,,,,,,,,,,,,,,,,,,,,,,,,,,,,786.5389988941038,None,786.5389988941038,None,787.0389366713794,None,791.5399126700863,791.5399126700863,0.009877087667518936,None,791.5399126700863,791.5399126700863,794.6905045236565,None,794.6905045236565,None,None,0.008202526627428597,None,,NENA_005,001,2020_Sep_09_1349,test7,3.2.4,99.95261772639046,
170,92,Seminariet var för anspråksfull för de flesta.  ,4,,0,,inc,1,no,174,199,,,,,,,,,,,,,0,55,55,55,,,,,,,,,,,,,,,,,,,,,,,,,,,,,,,,,,,,,,,,,,,,,,,,,,,,,,,,,,,,,,,,,,,,,,,,,,,,,,,,,,,,,,,,,,,,,799.6907190637598,None,800.1914936404532,None,800.1914936404532,None,left,0,1.2126734217881676,800.1914936404532,None,,,,,,,,,,,,,801.4214178313646,None,,,,,,,,,,,,,,,,,,,,,,,,,,,,,,,,,794.7005146524893,None,794.7005146524893,None,795.2005390284016,None,799.2013020586096,799.2013020586096,0.009876125462142227,None,799.2013020586096,799.2013020586096,802.9219720947124,None,802.9219720947124,None,None,0.00832376471862517,None,,NENA_005,001,2020_Sep_09_1349,test7,3.2.4,99.95261772639046,
160,6,Det svenska landslaget spelade en historisk match som de öldrickande gubbarna i restaurangen skulle inte glömma.,14,,15,,inc,1,no,163,164,,,,,,,,,,,,,0,56,56,56,,,,,,,,,,,,,,,,,,,,,,,,,,,,,,,,,,,,,,,,,,,,,,,,,,,,,,,,,,,,,,,,,,,,,,,,,,,,,,,,,,,,,,,,,,,,,812.4230032278842,None,812.9237268076026,None,812.9237268076026,None,right,1,1.4802163811264109,812.9237268076026,None,,,,,,,,,,,,,814.4138349981654,None,,,,,,,,,,,,,,,,,,,,,,,,,,,,,,,,,802.9319783747164,None,802.9319783747164,None,803.4320386730265,None,811.9336272769028,811.9336272769028,0.009874842518911464,None,811.9336272769028,811.9336272769028,815.914291116391,None,815.914291116391,None,None,0.008101174149487633,None,,NENA_005,001,2020_Sep_09_1349,test7,3.2.4,99.95261772639046,
160,9,Arbetarna på lastfartyget såg en risk med bygget som många av de övriga arbetarna nere vid hamnen inte hade påtalat.,18,,19,,cor,1,no,161,162,,,,,,,,,,,,,0,57,57,57,,,,,,,,,,,,,,,,,,,,,,,,,,,,,,,,,,,,,,,,,,,,,,,,,,,,,,,,,,,,,,,,,,,,,,,,,,,,,,,,,,,,,,,,,,,,,827.4157382437538,None,827.916558044179,None,827.916558044179,None,left,1,0.6072132815361329,827.916558044179,None,,,,,,,,,,,,,828.5368024960931,None,,,,,,,,,,,,,,,,,,,,,,,,,,,,,,,,,815.9243750144328,None,815.9243750144328,None,816.4242999622816,None,826.926360689094,826.926360689094,0.009877729140498559,None,826.926360689094,826.926360689094,830.0368929756316,None,830.0368929756316,None,None,0.00814351126064139,None,,NENA_005,001,2020_Sep_09_1349,test7,3.2.4,99.95261772639046,
170,87,Träslaget var för mjukt för att kunna användas. ,4,,0,,cor,1,no,173,199,,,,,,,,,,,,,0,58,58,58,,,,,,,,,,,,,,,,,,,,,,,,,,,,,,,,,,,,,,,,,,,,,,,,,,,,,,,,,,,,,,,,,,,,,,,,,,,,,,,,,,,,,,,,,,,,,835.5372589029816,None,836.038023536868,None,836.038023536868,None,left,1,0.8697508396862759,836.038023536868,None,,,,,,,,,,,,,836.918084746067,None,,,,,,,,,,,,,,,,,,,,,,,,,,,,,,,,,830.0469476867261,None,830.0469476867261,None,830.5469810432382,None,835.0477780714295,835.0477780714295,0.009879012081910332,None,835.0477780714295,835.0477780714295,838.4184225128231,None,838.4184225128231,None,None,0.00832665134112176,None,,NENA_005,001,2020_Sep_09_1349,test7,3.2.4,99.95261772639046,
170,44,Fåret är nästan frisk efter behandlingen.  ,4,,0,,inc,1,no,174,199,,,,,,,,,,,,,0,59,59,59,,,,,,,,,,,,,,,,,,,,,,,,,,,,,,,,,,,,,,,,,,,,,,,,,,,,,,,,,,,,,,,,,,,,,,,,,,,,,,,,,,,,,,,,,,,,,842.9186104318646,None,843.4193792353149,None,843.4193792353149,None,left,0,2.640227889122798,843.4193792353149,None,,,,,,,,,,,,,846.069508555945,None,,,,,,,,,,,,,,,,,,,,,,,,,,,,,,,,,838.4284201329642,None,838.4284201329642,None,838.9285452198833,None,842.4291725788948,842.4291725788948,0.009879012083729322,None,842.4291725788948,842.4291725788948,847.570128249373,None,847.570128249373,None,None,0.007665935817385616,None,,NENA_005,001,2020_Sep_09_1349,test7,3.2.4,99.95261772639046,
150,105,Säljaren gav en ursäkt som pojken inte kunde godta.  ,6,,7,,cor,1,no,151,152,,,,,,,,,,,,,0,60,60,60,,,,,,,,,,,,,,,,,,,,,,,,,,,,,,,,,,,,,,,,,,,,,,,,,,,,,,,,,,,,,,,,,,,,,,,,,,,,,,,,,,,,,,,,,,,,,853.570549343262,None,854.0713149393555,None,854.0713149393555,None,left,1,1.0920764813499773,854.0713149393555,None,,,,,,,,,,,,,855.1812560779413,None,,,,,,,,,,,,,,,,,,,,,,,,,,,,,,,,,847.580097644774,None,847.580097644774,None,848.0802378062704,None,853.0811304136973,853.0811304136973,0.009875804726107162,None,853.0811304136973,853.0811304136973,856.6817599857852,None,856.6817599857852,None,None,0.007929580554446147,None,,NENA_005,001,2020_Sep_09_1349,test7,3.2.4,99.95261772639046,
140,64,Lärare ger ofta betyg utan att diskuterar dem.,3,,4,,inc,1,no,137,138,,,,,,,,,,,,,0,61,61,61,,,,,,,,,,,,,,,,,,,,,,,,,,,,,,,,,,,,,,,,,,,,,,,,,,,,,,,,,,,,,,,,,,,,,,,,,,,,,,,,,,,,,,,,,,,,,862.1820983298653,None,862.6828950373206,None,862.6828950373206,None,right,1,1.0242537121948772,862.6828950373206,None,,,,,,,,,,,,,863.722815405064,None,,,,,,,,,,,,,,,,,,,,,,,,,,,,,,,,,856.6917871136097,None,856.6917871136097,None,857.1918332995497,None,861.6927034554778,861.6927034554778,0.009879012082819827,None,861.6927034554778,861.6927034554778,865.2233488205904,None,865.2233488205904,None,None,0.00815794436584838,None,,NENA_005,001,2020_Sep_09_1349,test7,3.2.4,99.95261772639046,
150,26,Media får information som privatpersoner kan inte få tag på. ,6,,7,,inc,1,no,153,154,,,,,,,,,,,,,0,62,62,62,,,,,,,,,,,,,,,,,,,,,,,,,,,,,,,,,,,,,,,,,,,,,,,,,,,,,,,,,,,,,,,,,,,,,,,,,,,,,,,,,,,,,,,,,,,,,871.7238674181294,None,872.224651616893,None,872.224651616893,None,right,1,1.0584697956783202,872.224651616893,None,,,,,,,,,,,,,873.2946948392341,None,,,,,,,,,,,,,,,,,,,,,,,,,,,,,,,,,865.233376269151,None,865.233376269151,None,865.7333961547643,None,871.2344061514536,871.2344061514536,0.009876446197267796,None,871.2344061514536,871.2344061514536,874.7951044507847,None,874.7951044507847,None,None,0.0075315475623938255,None,,NENA_005,001,2020_Sep_09_1349,test7,3.2.4,99.95261772639046,
170,11,Konstverket är förmodligen falskt och undersöks därför grundligt. ,4,,0,,cor,1,no,173,199,,,,,,,,,,,,,0,63,63,63,,,,,,,,,,,,,,,,,,,,,,,,,,,,,,,,,,,,,,,,,,,,,,,,,,,,,,,,,,,,,,,,,,,,,,,,,,,,,,,,,,,,,,,,,,,,,880.2954322105875,None,880.7962000518305,None,880.7962000518305,None,left,1,0.8227181580023171,880.7962000518305,None,,,,,,,,,,,,,881.6360297796678,None,,,,,,,,,,,,,,,,,,,,,,,,,,,,,,,,,874.8051142588824,None,874.8051142588824,None,875.3052056685542,None,879.805968378027,879.805968378027,0.009877087669337925,None,879.805968378027,879.805968378027,883.1366254179186,None,883.1366254179186,None,None,0.007721102356299525,None,,NENA_005,001,2020_Sep_09_1349,test7,3.2.4,99.95261772639046,
150,40,Nätet sprider information och tidningar inte kan kontrollera detta.  ,6,,7,,inc,1,no,157,158,,,,,,,,,,,,,0,64,64,64,,,,,,,,,,,,,,,,,,,,,,,,,,,,,,,,,,,,,,,,,,,,,,,,,,,,,,,,,,,,,,,,,,,,,,,,,,,,,,,,,,,,,,,,,,,,,889.1370445873931,None,889.6378287861567,None,889.6378287861567,None,right,1,2.0528854665672043,889.6378287861567,None,,,,,,,,,,,,,891.7081747829902,None,,,,,,,,,,,,,,,,,,,,,,,,,,,,,,,,,883.1466268868885,None,883.1466268868885,None,883.6467279186304,None,888.6476449019706,888.6476449019706,0.009875483990072098,None,888.6476449019706,888.6476449019706,893.2084721370495,None,893.2084721370495,None,None,0.00807423235164606,None,,NENA_005,001,2020_Sep_09_1349,test7,3.2.4,99.95261772639046,
170,99,Nätet var redan färdigt och spindeln väntade på bytet. ,4,,0,,cor,1,no,173,199,,,,,,,,,,,,,0,65,65,65,,,,,,,,,,,,,,,,,,,,,,,,,,,,,,,,,,,,,,,,,,,,,,,,,,,,,,,,,,,,,,,,,,,,,,,,,,,,,,,,,,,,,,,,,,,,,899.2088743075315,None,899.7096379792115,None,899.7096379792115,None,left,1,0.9410410823938946,899.7096379792115,None,,,,,,,,,,,,,900.6696566716869,None,,,,,,,,,,,,,,,,,,,,,,,,,,,,,,,,,893.218480341468,None,893.218480341468,None,893.7185323006502,None,898.7194803953521,898.7194803953521,0.009877408403554,None,898.7194803953521,898.7194803953521,902.1700983568073,None,902.1700983568073,None,None,0.0085482797030636,None,,NENA_005,001,2020_Sep_09_1349,test7,3.2.4,99.95261772639046,
140,14,Skräddare syr ofta kläder åt rika människa.,3,,4,,inc,1,no,131,132,,,,,,,,,,,,,0,66,66,66,,,,,,,,,,,,,,,,,,,,,,,,,,,,,,,,,,,,,,,,,,,,,,,,,,,,,,,,,,,,,,,,,,,,,,,,,,,,,,,,,,,,,,,,,,,,,907.1703385557662,None,907.6710977371454,None,907.6710977371454,None,right,1,0.6195173441028601,907.6710977371454,None,,,,,,,,,,,,,908.3010001821781,None,,,,,,,,,,,,,,,,,,,,,,,,,,,,,,,,,902.1799737766501,None,902.1799737766501,None,902.6800558849868,None,906.6808840245399,906.6808840245399,0.009877729140498559,None,906.6808840245399,906.6808840245399,909.8014858080871,None,909.8014858080871,None,None,0.008634878337943519,None,,NENA_005,001,2020_Sep_09_1349,test7,3.2.4,99.95261772639046,
170,24,Vinet är ganska dyr att importera.  ,4,,0,,inc,1,no,174,199,,,,,,,,,,,,,0,67,67,67,,,,,,,,,,,,,,,,,,,,,,,,,,,,,,,,,,,,,,,,,,,,,,,,,,,,,,,,,,,,,,,,,,,,,,,,,,,,,,,,,,,,,,,,,,,,,914.3016326729598,None,914.8021724711275,None,914.8021724711275,None,left,0,1.0642189829341078,914.8021724711275,None,,,,,,,,,,,,,915.8825132335546,None,,,,,,,,,,,,,,,,,,,,,,,,,,,,,,,,,909.8114985028055,None,909.8114985028055,None,910.3115780452567,None,913.8122310631238,913.8122310631238,0.009878370610749698,None,913.8122310631238,913.8122310631238,917.3828907715363,None,917.3828907715363,None,None,0.007573243202386948,None,,NENA_005,001,2020_Sep_09_1349,test7,3.2.4,99.95261772639046,
170,36,Köket är för sval och behöver värmas upp. ,4,,0,,inc,1,no,174,199,,,,,,,,,,,,,0,68,68,68,,,,,,,,,,,,,,,,,,,,,,,,,,,,,,,,,,,,,,,,,,,,,,,,,,,,,,,,,,,,,,,,,,,,,,,,,,,,,,,,,,,,,,,,,,,,,922.8831877407124,None,923.3839658454976,None,923.3839658454976,None,right,1,0.778326734730399,923.3839658454976,None,,,,,,,,,,,,,924.1739866035118,None,,,,,,,,,,,,,,,,,,,,,,,,,,,,,,,,,917.3928752415136,None,917.3928752415136,None,917.8928380361735,None,922.39377907469,922.39377907469,0.009879012082819827,None,922.39377907469,922.39377907469,925.6743997431552,None,925.6743997431552,None,None,0.007753496660370729,None,,NENA_005,001,2020_Sep_09_1349,test7,3.2.4,99.95261772639046,
150,109,Konstapeln använde förhörsrummet som kollegan inte ville använda.  ,6,,7,,cor,1,no,151,152,,,,,,,,,,,,,0,69,69,69,,,,,,,,,,,,,,,,,,,,,,,,,,,,,,,,,,,,,,,,,,,,,,,,,,,,,,,,,,,,,,,,,,,,,,,,,,,,,,,,,,,,,,,,,,,,,931.1747201260364,None,931.6754831562444,None,931.6754831562444,None,left,1,0.6306035732513919,931.6754831562444,None,,,,,,,,,,,,,932.3255829691911,None,,,,,,,,,,,,,,,,,,,,,,,,,,,,,,,,,925.6844060231601,None,925.6844060231601,None,926.1845019231309,None,930.685302479415,930.685302479415,0.009881257232336793,None,930.685302479415,930.685302479415,933.8258854550215,None,933.8258854550215,None,None,0.007918996277112456,None,,NENA_005,001,2020_Sep_09_1349,test7,3.2.4,99.95261772639046,
130,51,Snickare tillverkar ofta möbler från gammalt trä.,3,,4,,cor,1,no,135,136,,,,,,,,,,,,,0,70,70,70,,,,,,,,,,,,,,,,,,,,,,,,,,,,,,,,,,,,,,,,,,,,,,,,,,,,,,,,,,,,,,,,,,,,,,,,,,,,,,,,,,,,,,,,,,,,,938.8261137867598,None,939.3268918915451,None,939.3268918915451,None,left,1,0.9311521595773229,939.3268918915451,None,,,,,,,,,,,,,940.2667898719369,None,,,,,,,,,,,,,,,,,,,,,,,,,,,,,,,,,933.8359010363615,None,933.8359010363615,None,934.335977371456,None,938.3367054414734,938.3367054414734,0.009878370611659193,None,938.3367054414734,938.3367054414734,941.7672706868109,None,941.7672706868109,None,None,0.007990520335624751,None,,NENA_005,001,2020_Sep_09_1349,test7,3.2.4,99.95261772639046,
180,44,Bröllopet som för att vara en vuxenfest avslutades alldeles för tidigt var ändå jättelyckad enligt de flesta gästerna. ,14,,0,,inc,1,no,182,199,,,,,,,,,,,,,0,71,71,71,,,,,,,,,,,,,,,,,,,,,,,,,,,,,,,,,,,,,,,,,,,,,,,,,,,,,,,,,,,,,,,,,,,,,,,,,,,,,,,,,,,,,,,,,,,,,952.268571237963,None,952.7693429280348,None,952.7693429280348,None,right,1,0.8484931195780518,952.7693429280348,None,,,,,,,,,,,,,953.6394911592411,None,,,,,,,,,,,,,,,,,,,,,,,,,,,,,,,,,941.7772041598141,None,941.7772041598141,None,942.2773270015837,None,951.7791619304694,951.7791619304694,0.009877729140498559,None,951.7791619304694,951.7791619304694,955.1397371955902,None,955.1397371955902,None,None,0.008982235091934854,None,,NENA_005,001,2020_Sep_09_1349,test7,3.2.4,99.95261772639046,
150,115,Målvakten gjorde misstag och domaren kunde inte ignorera dem.  ,6,,7,,cor,1,no,155,156,,,,,,,,,,,,,0,72,72,72,,,,,,,,,,,,,,,,,,,,,,,,,,,,,,,,,,,,,,,,,,,,,,,,,,,,,,,,,,,,,,,,,,,,,,,,,,,,,,,,,,,,,,,,,,,,,961.1401554028566,None,961.6409764862251,None,961.6409764862251,None,left,1,0.9207686623267364,961.6409764862251,None,,,,,,,,,,,,,962.570859173939,None,,,,,,,,,,,,,,,,,,,,,,,,,,,,,,,,,955.1497813224064,None,955.1497813224064,None,955.6498275083454,None,960.6507906776246,960.6507906776246,0.009875163255856023,None,960.6507906776246,960.6507906776246,964.0713836088664,None,964.0713836088664,None,None,0.008178150715139054,None,,NENA_005,001,2020_Sep_09_1349,test7,3.2.4,99.95261772639046,
150,49,Regeringen presenterar förslag som riksdagen inte vill diskutera.  ,6,,7,,cor,1,no,151,152,,,,,,,,,,,,,0,73,73,73,,,,,,,,,,,,,,,,,,,,,,,,,,,,,,,,,,,,,,,,,,,,,,,,,,,,,,,,,,,,,,,,,,,,,,,,,,,,,,,,,,,,,,,,,,,,,969.5717466495948,None,970.0724917186049,None,970.0724917186049,None,left,1,1.5690393196300647,970.0724917186049,None,,,,,,,,,,,,,971.6526653777369,None,,,,,,,,,,,,,,,,,,,,,,,,,,,,,,,,,964.0813908510786,None,964.0813908510786,None,964.5813626263375,None,969.0823498507939,969.0823498507939,0.009875483990072098,None,969.0823498507939,969.0823498507939,973.1530749892875,None,973.1530749892875,None,None,0.008643858937830373,None,,NENA_005,001,2020_Sep_09_1349,test7,3.2.4,99.95261772639046,
160,25,Filosofen med de tjocka glasögonen drog en fullständigt absurd slutsats som de två psykologerna bland deltagarna i seminariet inte kunde förstå.,19,,20,,cor,1,no,161,162,,,,,,,,,,,,,0,74,74,74,,,,,,,,,,,,,,,,,,,,,,,,,,,,,,,,,,,,,,,,,,,,,,,,,,,,,,,,,,,,,,,,,,,,,,,,,,,,,,,,,,,,,,,,,,,,,985.1545634915542,None,985.6553092020354,None,985.6553092020354,None,left,1,1.2259493134979493,985.6553092020354,None,,,,,,,,,,,,,986.8952393842906,None,,,,,,,,,,,,,,,,,,,,,,,,,,,,,,,,,973.1630568933801,None,973.1630568933801,None,973.663162415422,None,984.6652045395645,984.6652045395645,0.009874842518911464,None,984.6652045395645,984.6652045395645,988.3958504178547,None,988.3958504178547,None,None,0.007660804046281555,None,,NENA_005,001,2020_Sep_09_1349,test7,3.2.4,99.95261772639046,
170,48,Arbetet var ganska välbetald och det fanns många sökande. ,4,,0,,inc,1,no,174,199,,,,,,,,,,,,,0,75,75,75,,,,,,,,,,,,,,,,,,,,,,,,,,,,,,,,,,,,,,,,,,,,,,,,,,,,,,,,,,,,,,,,,,,,,,,,,,,,,,,,,,,,,,,,,,,,,994.3962535505439,None,994.8970342212156,None,994.8970342212156,None,left,0,0.9601418549818845,994.8970342212156,None,,,,,,,,,,,,,995.8675762517028,None,,,,,,,,,,,,,,,,,,,,,,,,,,,,,,,,,988.4058544527093,None,988.4058544527093,None,988.9059391269316,None,993.9068378283368,993.9068378283368,0.009876125462142227,None,993.9068378283368,993.9068378283368,997.3674835911618,None,997.3674835911618,None,None,0.007940485567814903,None,,NENA_005,001,2020_Sep_09_1349,test7,3.2.4,99.95261772639046,
160,59,Många europeiska klädaffärer bedriver en omoralisk utlandshandel som konsumenterna i de relativt välbärgade länderna inte vill förändra.,15,,16,,cor,1,no,161,162,,,,,,,,,,,,,0,76,76,76,,,,,,,,,,,,,,,,,,,,,,,,,,,,,,,,,,,,,,,,,,,,,,,,,,,,,,,,,,,,,,,,,,,,,,,,,,,,,,,,,,,,,,,,,,,,,1007.3586081610551,None,1007.8594026233618,None,1007.8594026233618,None,left,1,0.9335240000109479,1007.8594026233618,None,,,,,,,,,,,,,1008.809307878038,None,,,,,,,,,,,,,,,,,,,,,,,,,,,,,,,,,997.3774924370523,None,997.3774924370523,None,997.8775443962345,None,1006.8691658177863,1006.8691658177863,0.009875483990072098,None,1006.8691658177863,1006.8691658177863,1010.3098040882253,None,1010.3098040882253,None,None,0.007727517068815359,None,,NENA_005,001,2020_Sep_09_1349,test7,3.2.4,99.95261772639046,
160,13,Den egyptiska bomullen uppvisade en otroligt hög kvalitet som de nyfikna besökarna på plantagen i norr inte kunde sluta beundra.,17,,18,,cor,1,no,161,162,,,,,,,,,,,,,0,77,77,77,,,,,,,,,,,,,,,,,,,,,,,,,,,,,,,,,,,,,,,,,,,,,,,,,,,,,,,,,,,,,,,,,,,,,,,,,,,,,,,,,,,,,,,,,,,,,1021.80124490351,None,1022.3020515537723,None,1022.3020515537723,None,left,1,0.9786560019911121,1022.3020515537723,None,,,,,,,,,,,,,1023.2920891824829,None,,,,,,,,,,,,,,,,,,,,,,,,,,,,,,,,,1010.319846290628,None,1010.319846290628,None,1010.8199415491276,None,1021.3118513120658,1021.3118513120658,0.009875804726107162,None,1021.3118513120658,1021.3118513120658,1024.7924484385305,None,1024.7924484385305,None,None,0.0077672882962360745,None,,NENA_005,001,2020_Sep_09_1349,test7,3.2.4,99.95261772639046,
150,30,Föräldrarna drar skämt som barnen kan inte förstå.  ,6,,7,,inc,1,no,153,154,,,,,,,,,,,,,0,78,78,78,,,,,,,,,,,,,,,,,,,,,,,,,,,,,,,,,,,,,,,,,,,,,,,,,,,,,,,,,,,,,,,,,,,,,,,,,,,,,,,,,,,,,,,,,,,,,1030.2928124414661,None,1030.7935918291946,None,1030.7935918291946,None,right,1,0.7829135758438497,1030.7935918291946,None,,,,,,,,,,,,,1031.593679197596,None,,,,,,,,,,,,,,,,,,,,,,,,,,,,,,,,,1024.8024823018045,None,1024.8024823018045,None,1025.3025701833835,None,1029.803400568087,1029.803400568087,0.009877729140498559,None,1029.803400568087,1029.803400568087,1033.0939919469686,None,1033.0939919469686,None,None,0.007987312978912087,None,,NENA_005,001,2020_Sep_09_1349,test7,3.2.4,99.95261772639046,
180,37,Tavlan som för en liten stund sedan auktionerades ut till en beslutsam konstkännare var otroligt vacker men kostade en förmögenhet. ,16,,0,,cor,1,no,181,199,,,,,,,,,,,,,0,79,79,79,,,,,,,,,,,,,,,,,,,,,,,,,,,,,,,,,,,,,,,,,,,,,,,,,,,,,,,,,,,,,,,,,,,,,,,,,,,,,,,,,,,,,,,,,,,,,1044.5954175850397,None,1045.0961924824683,None,1045.0961924824683,None,left,1,1.3121829527699447,1045.0961924824683,None,,,,,,,,,,,,,1046.4261509279527,None,,,,,,,,,,,,,,,,,,,,,,,,,,,,,,,,,1033.1039834731314,None,1033.1039834731314,None,1033.6041056734298,None,1044.1060223899171,1044.1060223899171,0.00987420104775083,None,1044.1060223899171,1044.1060223899171,1047.9267218695552,None,1047.9267218695552,None,None,0.008107588862912962,None,,NENA_005,001,2020_Sep_09_1349,test7,3.2.4,99.95261772639046,
170,15,Modemet är för gammalt för att repareras.  ,4,,0,,cor,1,no,173,199,,,,,,,,,,,,,0,80,80,80,,,,,,,,,,,,,,,,,,,,,,,,,,,,,,,,,,,,,,,,,,,,,,,,,,,,,,,,,,,,,,,,,,,,,,,,,,,,,,,,,,,,,,,,,,,,,1052.9269120337462,None,1053.4276859689685,None,1053.4276859689685,None,left,1,0.924656620370115,1053.4276859689685,None,,,,,,,,,,,,,1054.3676173058716,None,,,,,,,,,,,,,,,,,,,,,,,,,,,,,,,,,1047.936727828825,None,1047.936727828825,None,1048.4367573365084,None,1052.4375364035009,1052.4375364035009,0.009874842518911464,None,1052.4375364035009,1052.4375364035009,1055.8681436652134,None,1055.8681436652134,None,None,0.00818905572850781,None,,NENA_005,001,2020_Sep_09_1349,test7,3.2.4,99.95261772639046,
170,117,Lampan är tillräckligt stark för att man ska kunna se.,4,,0,,cor,1,no,171,199,,,,,,,,,,,,,0,81,81,81,,,,,,,,,,,,,,,,,,,,,,,,,,,,,,,,,,,,,,,,,,,,,,,,,,,,,,,,,,,,,,,,,,,,,,,,,,,,,,,,,,,,,,,,,,,,,1062.3686455844959,None,1062.8694031621976,None,1062.8694031621976,None,left,1,1.7225690800532902,1062.8694031621976,None,,,,,,,,,,,,,1064.6096146296527,None,,,,,,,,,,,,,,,,,,,,,,,,,,,,,,,,,1055.878134549905,None,1055.878134549905,None,1056.3782474488685,None,1061.8792609736506,1061.8792609736506,0.00987965355398046,None,1061.8792609736506,1061.8792609736506,1066.1100261656177,None,1066.1100261656177,None,None,0.0076784445091107045,None,,NENA_005,001,2020_Sep_09_1349,test7,3.2.4,99.95261772639046,
150,57,Utvärderingen gav resultat som forskarna inte kunde värdera.  ,6,,7,,cor,1,no,151,152,,,,,,,,,,,,,0,82,82,82,,,,,,,,,,,,,,,,,,,,,,,,,,,,,,,,,,,,,,,,,,,,,,,,,,,,,,,,,,,,,,,,,,,,,,,,,,,,,,,,,,,,,,,,,,,,,1071.6103394923143,None,1072.1111214459274,None,1072.1111214459274,None,left,1,0.6968406251526176,1072.1111214459274,None,,,,,,,,,,,,,1072.8211218564697,None,,,,,,,,,,,,,,,,,,,,,,,,,,,,,,,,,1066.1200378981289,None,1066.1200378981289,None,1066.6199939573394,None,1071.120940448363,1071.120940448363,0.009877729139589064,None,1071.120940448363,1071.120940448363,1074.3215369205266,None,1074.3215369205266,None,None,0.007856773552703089,None,,NENA_005,001,2020_Sep_09_1349,test7,3.2.4,99.95261772639046,
160,4,Det nya lagförslaget innebär stora praktiska förändringar som de mer erfarna medlemmarna i partiet kan inte ställa sig bakom.,15,,16,,inc,1,no,163,164,,,,,,,,,,,,,0,83,83,83,,,,,,,,,,,,,,,,,,,,,,,,,,,,,,,,,,,,,,,,,,,,,,,,,,,,,,,,,,,,,,,,,,,,,,,,,,,,,,,,,,,,,,,,,,,,,1085.3228432449218,None,1085.8236364242844,None,1085.8236364242844,None,right,1,0.73619329072244,1085.8236364242844,None,,,,,,,,,,,,,1086.57373649382,None,,,,,,,,,,,,,,,,,,,,,,,,,,,,,,,,,1074.3315306918398,None,1074.3315306918398,None,1074.8315948389777,None,1084.8334628036405,1084.8334628036405,0.009877729140498559,None,1084.8334628036405,1084.8334628036405,1088.0740158866804,None,1088.0740158866804,None,None,0.007770816388074309,None,,NENA_005,001,2020_Sep_09_1349,test7,3.2.4,99.95261772639046,
170,61,Elden var ganska farlig för de närliggande husen. ,4,,0,,cor,1,no,171,199,,,,,,,,,,,,,0,84,84,84,,,,,,,,,,,,,,,,,,,,,,,,,,,,,,,,,,,,,,,,,,,,,,,,,,,,,,,,,,,,,,,,,,,,,,,,,,,,,,,,,,,,,,,,,,,,,1093.5743600040028,None,1094.0751358636385,None,1094.0751358636385,None,left,1,1.0524771700338533,1094.0751358636385,None,,,,,,,,,,,,,1095.1451498990323,None,,,,,,,,,,,,,,,,,,,,,,,,,,,,,,,,,1088.0840487877472,None,1088.0840487877472,None,1088.5841527061116,None,1093.0849516587164,1093.0849516587164,0.00987420104775083,None,1093.0849516587164,1093.0849516587164,1096.6455675289756,None,1096.6455675289756,None,None,0.007970313987243571,None,,NENA_005,001,2020_Sep_09_1349,test7,3.2.4,99.95261772639046,
180,43,Myntet som på den här tiden faktiskt räckte till ett par nya skor såg fantastiskt blankt ut i solskenet. ,16,,0,,cor,1,no,181,199,,,,,,,,,,,,,0,85,85,85,,,,,,,,,,,,,,,,,,,,,,,,,,,,,,,,,,,,,,,,,,,,,,,,,,,,,,,,,,,,,,,,,,,,,,,,,,,,,,,,,,,,,,,,,,,,,1107.6469328687367,None,1108.1475252675577,None,1108.1475252675577,None,left,1,1.643738341257631,1108.1475252675577,None,,,,,,,,,,,,,1109.807924545004,None,,,,,,,,,,,,,,,,,,,,,,,,,,,,,,,,,1096.6556062032846,None,1096.6556062032846,None,1097.1556530306957,None,1107.1575408809708,1107.1575408809708,0.00987676693330286,None,1107.1575408809708,1107.1575408809708,1111.3082966304794,None,1111.3082966304794,None,None,0.008129398890559969,None,,NENA_005,001,2020_Sep_09_1349,test7,3.2.4,99.95261772639046,
180,24,Kaffet som hade hällts upp i de små fina kaffekopparna på middagsbordet var för varm att drickas utan mjölk. ,15,,0,,inc,1,no,182,199,,,,,,,,,,,,,0,86,86,86,,,,,,,,,,,,,,,,,,,,,,,,,,,,,,,,,,,,,,,,,,,,,,,,,,,,,,,,,,,,,,,,,,,,,,,,,,,,,,,,,,,,,,,,,,,,,1122.309609048852,None,1122.8103893987877,None,1122.8103893987877,None,left,0,1.172720339004627,1122.8103893987877,None,,,,,,,,,,,,,1124.0002556263457,None,,,,,,,,,,,,,,,,,,,,,,,,,,,,,,,,,1111.3182932884133,None,1111.3182932884133,None,1111.8183818114635,None,1121.8202167403501,1121.8202167403501,0.009876446197267796,None,1121.8202167403501,1121.8202167403501,1125.5008365107553,None,1125.5008365107553,None,None,0.008069742051702633,None,,NENA_005,001,2020_Sep_09_1349,test7,3.2.4,99.95261772639046,
160,52,Tre promenader i veckan har positiva effekter på hjärnan som många människor med lätt eller medelsvår depression bör inte vara utan.,18,,19,,inc,1,yes,163,164,,,,,,,,,,,,,0,87,87,87,,,,,,,,,,,,,,,,,,,,,,,,,,,,,,,,,,,,,,,,,,,,,,,,,,,,,,,,,,,,,,,,,,,,,,,,,,,,,,,,,,,,,,,,,,,,,1137.5023535584983,None,1138.0031749626019,None,1138.0031749626019,None,right,1,1.427756210084226,1138.0031749626019,None,,,,,,,,,,,,,1139.443264422201,None,,,,,,,,,,,,,,,,,,,,,,,,,,,,,,,,,1125.5108973158272,None,1125.5108973158272,None,1126.010961462965,None,1137.0129820978168,1137.0129820978168,0.009874842518911464,None,1137.0129820978168,1137.0129820978168,1140.9433507001017,None,1140.9433507001017,None,space,0.00827565436520672,None,69.90214482371084,NENA_005,001,2020_Sep_09_1349,test7,3.2.4,99.95261772639046,
170,51,Mörkret är särskilt långvarigt i Finland.  ,4,,0,,cor,1,no,173,199,,,,,,,,,,,,,0,88,88,88,,,,,,,,,,,,,,,,,,,,,,,,,,,,,,,,,,,,,,,,,,,,,,,,,,,,,,,,,,,,,,,,,,,,,,,,,,,,,,,,,,,,,,,,,,,,,1215.3465962887035,None,1215.8472916436808,None,1215.8472916436808,None,left,1,1.0383535738928913,1215.8472916436808,None,,,,,,,,,,,,,1216.8974502154065,None,,,,,,,,,,,,,,,,,,,,,,,,,,,,,,,,,1210.856372954027,None,1210.856372954027,None,1211.356410480103,None,1214.8571949996026,1214.8571949996026,0.009877729140498559,None,1214.8571949996026,1214.8571949996026,1218.397826791181,None,1218.397826791181,None,None,0.008301313220727025,None,,NENA_005,001,2020_Sep_09_1349,test7,3.2.4,99.95261772639046,
170,6,Mangon var mycket saftigt men smakade inget.  ,4,,0,,inc,1,no,172,199,,,,,,,,,,,,,0,89,89,89,,,,,,,,,,,,,,,,,,,,,,,,,,,,,,,,,,,,,,,,,,,,,,,,,,,,,,,,,,,,,,,,,,,,,,,,,,,,,,,,,,,,,,,,,,,,,1223.398058330276,None,1223.8988415668323,None,1223.8988415668323,None,left,0,1.426716384975407,1223.8988415668323,None,,,,,,,,,,,,,1225.338952194987,None,,,,,,,,,,,,,,,,,,,,,,,,,,,,,,,,,1218.4078295430932,None,1218.4078295430932,None,1218.9077939414315,None,1222.9086714742812,1222.9086714742812,0.009878370611659193,None,1222.9086714742812,1222.9086714742812,1226.8393550710882,None,1226.8393550710882,None,None,0.008616917140898295,None,,NENA_005,001,2020_Sep_09_1349,test7,3.2.4,99.95261772639046,
180,49,Ålen som tidigt rödlistades på grund av det nära förestående utrotningshotet är fortfarande vanlig som julmat.  ,14,,0,,cor,1,no,181,199,,,,,,,,,,,,,0,90,90,90,,,,,,,,,,,,,,,,,,,,,,,,,,,,,,,,,,,,,,,,,,,,,,,,,,,,,,,,,,,,,,,,,,,,,,,,,,,,,,,,,,,,,,,,,,,,,1236.3403971092735,None,1236.8411902886369,None,1236.8411902886369,None,left,1,2.9802571145592083,1236.8411902886369,None,,,,,,,,,,,,,1239.83160061222,None,,,,,,,,,,,,,,,,,,,,,,,,,,,,,,,,,1226.8493764256705,None,1226.8493764256705,None,1227.3493267116378,None,1235.851021479028,1235.851021479028,0.009876125461232732,None,1235.851021479028,1235.851021479028,1241.3320143933345,None,1241.3320143933345,None,None,0.0075379622758191545,None,,NENA_005,001,2020_Sep_09_1349,test7,3.2.4,99.95261772639046,
140,50,Hundar jagar ofta katter genom trädgård.,3,,4,,inc,1,no,135,136,,,,,,,,,,,,,0,91,91,91,,,,,,,,,,,,,,,,,,,,,,,,,,,,,,,,,,,,,,,,,,,,,,,,,,,,,,,,,,,,,,,,,,,,,,,,,,,,,,,,,,,,,,,,,,,,,1245.8321625411504,None,1246.3328877245472,None,1246.3328877245472,None,right,1,2.3202969242729523,1246.3328877245472,None,,,,,,,,,,,,,1248.663750003207,None,,,,,,,,,,,,,,,,,,,,,,,,,,,,,,,,,1241.3420261258466,None,1241.3420261258466,None,1241.842097008434,None,1245.3427654216134,1245.3427654216134,0.009877087669337925,None,1245.3427654216134,1245.3427654216134,1250.163633928961,None,1250.163633928961,None,None,0.007808021728124004,None,,NENA_005,001,2020_Sep_09_1349,test7,3.2.4,99.95261772639046,
170,38,Stugan var lagom rymligt för familjen.  ,4,,0,,inc,1,no,172,199,,,,,,,,,,,,,0,92,92,92,,,,,,,,,,,,,,,,,,,,,,,,,,,,,,,,,,,,,,,,,,,,,,,,,,,,,,,,,,,,,,,,,,,,,,,,,,,,,,,,,,,,,,,,,,,,,1254.6637583423358,None,1255.1645374093282,None,1255.1645374093282,None,right,1,0.7765588396041494,1255.1645374093282,None,,,,,,,,,,,,,1255.9544189680523,None,,,,,,,,,,,,,,,,,,,,,,,,,,,,,,,,,1250.1735933815548,None,1250.1735933815548,None,1250.6737046768399,None,1254.1743596191204,1254.1743596191204,0.00987965355398046,None,1254.1743596191204,1254.1743596191204,1257.454958477558,None,1257.454958477558,None,None,0.00783303911157418,None,,NENA_005,001,2020_Sep_09_1349,test7,3.2.4,99.95261772639046,
150,48,Bolagen accepterar risker men bankerna inte är beredda att ta dem. ,6,,7,,inc,1,no,157,158,,,,,,,,,,,,,0,93,93,93,,,,,,,,,,,,,,,,,,,,,,,,,,,,,,,,,,,,,,,,,,,,,,,,,,,,,,,,,,,,,,,,,,,,,,,,,,,,,,,,,,,,,,,,,,,,,1264.4555290342773,None,1264.9562526139957,None,1264.9562526139957,None,left,0,1.0725670914916918,1264.9562526139957,None,,,,,,,,,,,,,1266.0463206484505,None,,,,,,,,,,,,,,,,,,,,,,,,,,,,,,,,,1257.4649676441836,None,1257.4649676441836,None,1257.9650196033658,None,1263.966149555204,1263.966149555204,0.009874842519820959,None,1263.966149555204,1263.966149555204,1267.5467867094824,None,1267.5467867094824,None,None,0.008241656381869689,None,,NENA_005,001,2020_Sep_09_1349,test7,3.2.4,99.95261772639046,
180,14,Flygeln som bandledaren hade bett pianisten att inte använda på konserten var extremt svårstämt och lät väldigt högt. ,14,,0,,inc,1,no,182,199,,,,,,,,,,,,,0,94,94,94,,,,,,,,,,,,,,,,,,,,,,,,,,,,,,,,,,,,,,,,,,,,,,,,,,,,,,,,,,,,,,,,,,,,,,,,,,,,,,,,,,,,,,,,,,,,,1278.048006435241,None,1278.5488323296445,None,1278.5488323296445,None,left,0,1.071891301391588,1278.5488323296445,None,,,,,,,,,,,,,1279.638764372166,None,,,,,,,,,,,,,,,,,,,,,,,,,,,,,,,,,1267.5567891406595,None,1267.5567891406595,None,1268.0568455901407,None,1277.5586292013172,1277.5586292013172,0.009878370611659193,None,1277.5586292013172,1277.5586292013172,1281.1392788642881,None,1281.1392788642881,None,None,0.008192904557290603,None,,NENA_005,001,2020_Sep_09_1349,test7,3.2.4,99.95261772639046,
150,75,Artisten övade sången men gitarristen ville inte spela den.  ,6,,7,,cor,1,no,155,156,,,,,,,,,,,,,0,95,95,95,,,,,,,,,,,,,,,,,,,,,,,,,,,,,,,,,,,,,,,,,,,,,,,,,,,,,,,,,,,,,,,,,,,,,,,,,,,,,,,,,,,,,,,,,,,,,1287.1396973922906,None,1287.6404908923892,None,1287.6404908923892,None,left,1,1.955995704707675,1287.6404908923892,None,,,,,,,,,,,,,1289.6108507450049,None,,,,,,,,,,,,,,,,,,,,,,,,,,,,,,,,,1281.1492745600149,None,1281.1492745600149,None,1281.6493781576432,None,1286.6502851981763,1286.6502851981763,0.009878691347694257,None,1286.6502851981763,1286.6502851981763,1291.1111019131242,None,1291.1111019131242,None,None,0.0076094863361504395,None,,NENA_005,001,2020_Sep_09_1349,test7,3.2.4,99.95261772639046,
170,34,Festen var ganska trevligt men slutade för tidigt. ,4,,0,,inc,1,no,172,199,,,,,,,,,,,,,0,96,96,96,,,,,,,,,,,,,,,,,,,,,,,,,,,,,,,,,,,,,,,,,,,,,,,,,,,,,,,,,,,,,,,,,,,,,,,,,,,,,,,,,,,,,,,,,,,,,1296.6114168434992,None,1297.1122061740339,None,1297.1122061740339,None,left,0,1.4522055710503992,1297.1122061740339,None,,,,,,,,,,,,,1298.58242458221,None,,,,,,,,,,,,,,,,,,,,,,,,,,,,,,,,,1291.1210597620397,None,1291.1210597620397,None,1291.6212028101577,None,1296.1220011212922,1296.1220011212922,0.009878049876533623,None,1296.1220011212922,1296.1220011212922,1300.0827001262417,None,1300.0827001262417,None,None,0.007845227069083194,None,,NENA_005,001,2020_Sep_09_1349,test7,3.2.4,99.95261772639046,
160,54,Löpare runtom i landet påtalar ett allvarligt problem som de flesta deltagare i landets många lopp har inte brytt sig om.,17,,18,,inc,1,no,163,164,,,,,,,,,,,,,0,97,97,97,,,,,,,,,,,,,,,,,,,,,,,,,,,,,,,,,,,,,,,,,,,,,,,,,,,,,,,,,,,,,,,,,,,,,,,,,,,,,,,,,,,,,,,,,,,,,1312.074249991661,None,1312.5750239268823,None,1312.5750239268823,None,right,1,1.1250898059934116,1312.5750239268823,None,,,,,,,,,,,,,1313.7149474378352,None,,,,,,,,,,,,,,,,,,,,,,,,,,,,,,,,,1300.0927153868456,None,1300.0927153868456,None,1300.5927201978816,None,1311.5848381182818,1311.5848381182818,0.009876446198177291,None,1311.5848381182818,1311.5848381182818,1315.2154510249431,None,1315.2154510249431,None,None,0.00797993605829106,None,,NENA_005,001,2020_Sep_09_1349,test7,3.2.4,99.95261772639046,
150,78,Pojken serverade mat som katten ville inte äta.  ,6,,7,,inc,1,no,153,154,,,,,,,,,,,,,0,98,98,98,,,,,,,,,,,,,,,,,,,,,,,,,,,,,,,,,,,,,,,,,,,,,,,,,,,,,,,,,,,,,,,,,,,,,,,,,,,,,,,,,,,,,,,,,,,,,1320.7157983496222,None,1321.2166149426907,None,1321.2166149426907,None,right,1,1.4193038624280234,1321.2166149426907,None,,,,,,,,,,,,,1322.6466268868885,None,,,,,,,,,,,,,,,,,,,,,,,,,,,,,,,,,1315.2254871333676,None,1315.2254871333676,None,1315.7255836748104,None,1320.2264297755623,1320.2264297755623,0.00987676693330286,None,1320.2264297755623,1320.2264297755623,1324.147123738547,None,1324.147123738547,None,None,0.008285276436254208,None,,NENA_005,001,2020_Sep_09_1349,test7,3.2.4,99.95261772639046,
180,4,Rummet som hade lånats ut till ett yngre par på genomresa var fruktansvärt stökig när de åkte. ,14,,0,,inc,1,no,182,199,,,,,,,,,,,,,0,99,99,99,,,,,,,,,,,,,,,,,,,,,,,,,,,,,,,,,,,,,,,,,,,,,,,,,,,,,,,,,,,,,,,,,,,,,,,,,,,,,,,,,,,,,,,,,,,,,1334.1482514131617,None,1334.6490615915159,None,1334.6490615915159,None,left,0,1.8026930251535305,1334.6490615915159,None,,,,,,,,,,,,,1336.4691359252197,None,,,,,,,,,,,,,,,,,,,,,,,,,,,,,,,,,1324.157130660023,None,1324.157130660023,None,1324.657181336262,None,1333.6588613498102,1333.6588613498102,0.00987708766842843,None,1333.6588613498102,1333.6588613498102,1337.9696067972875,None,1337.9696067972875,None,None,0.008207016927372024,None,,NENA_005,001,2020_Sep_09_1349,test7,3.2.4,99.95261772639046,
180,15,Fönstret som hade morgonsol och vette ut mot gården med de vackra rosenbuskarna var väldigt smutsigt och behövde tvättas omgående. ,16,,0,,cor,1,no,181,199,,,,,,,,,,,,,0,100,100,100,,,,,,,,,,,,,,,,,,,,,,,,,,,,,,,,,,,,,,,,,,,,,,,,,,,,,,,,,,,,,,,,,,,,,,,,,,,,,,,,,,,,,,,,,,,,,1349.4710773383554,None,1349.9718628200621,None,1349.9718628200621,None,left,1,1.8636433906640377,1349.9718628200621,None,,,,,,,,,,,,,1351.85192338779,None,,,,,,,,,,,,,,,,,,,,,,,,,,,,,,,,,1337.9796506033676,None,1337.9796506033676,None,1338.4797647852743,None,1348.98168310544,1348.98168310544,0.009874521783785895,None,1348.98168310544,1348.98168310544,1353.3524609728813,None,1353.3524609728813,None,None,0.008580674007134803,None,,NENA_005,001,2020_Sep_09_1349,test7,3.2.4,99.95261772639046,
170,30,Leken är särskilt svårt för nybörjare.  ,4,,0,,inc,1,no,172,199,,,,,,,,,,,,,0,101,101,101,,,,,,,,,,,,,,,,,,,,,,,,,,,,,,,,,,,,,,,,,,,,,,,,,,,,,,,,,,,,,,,,,,,,,,,,,,,,,,,,,,,,,,,,,,,,,1357.8526065548108,None,1358.3533929987248,None,1358.3533929987248,None,right,1,0.6580178149433777,1358.3533929987248,None,,,,,,,,,,,,,1359.0233611047674,None,,,,,,,,,,,,,,,,,,,,,,,,,,,,,,,,,1353.362456989344,None,1353.362456989344,None,1353.8625596247653,None,1357.3631760787625,1357.3631760787625,0.009878049876533623,None,1357.3631760787625,1357.3631760787625,1360.5237790554459,None,1360.5237790554459,None,None,0.008612426839135878,None,,NENA_005,001,2020_Sep_09_1349,test7,3.2.4,99.95261772639046,
160,31,Bondsonen i granngården sätter en ny sorts potatis som de något äldre bönderna i samhället inte vill använda.,16,,17,,cor,1,no,161,162,,,,,,,,,,,,,0,102,102,102,,,,,,,,,,,,,,,,,,,,,,,,,,,,,,,,,,,,,,,,,,,,,,,,,,,,,,,,,,,,,,,,,,,,,,,,,,,,,,,,,,,,,,,,,,,,,1371.0050089292813,None,1371.5057790156748,None,1371.5057790156748,None,left,1,0.9856146835363688,1371.5057790156748,None,,,,,,,,,,,,,1372.5056128745869,None,,,,,,,,,,,,,,,,,,,,,,,,,,,,,,,,,1360.5337824488302,None,1360.5337824488302,None,1361.0338616705453,None,1370.5156214318154,1370.5156214318154,0.009872597368485003,None,1370.5156214318154,1370.5156214318154,1374.0062351339004,None,1374.0062351339004,None,None,0.008382459350286808,None,,NENA_005,001,2020_Sep_09_1349,test7,3.2.4,99.95261772639046,
160,20,Ordningsvakten med det långa håret stängde den enda öppna dörren som den väldigt glömska kollegan från nattskiftet hade inte stängt.,18,,19,,inc,1,no,163,164,,,,,,,,,,,,,0,103,103,103,,,,,,,,,,,,,,,,,,,,,,,,,,,,,,,,,,,,,,,,,,,,,,,,,,,,,,,,,,,,,,,,,,,,,,,,,,,,,,,,,,,,,,,,,,,,,1385.5076479425447,None,1386.0084331035155,None,1386.0084331035155,None,right,1,2.8665672172201084,1386.0084331035155,None,,,,,,,,,,,,,1388.8888192179697,None,,,,,,,,,,,,,,,,,,,,,,,,,,,,,,,,,1374.0162372443415,None,1374.0162372443415,None,1374.5162032463581,None,1385.0182549925717,1385.0182549925717,0.009875163255856023,None,1385.0182549925717,1385.0182549925717,1390.3892403760049,None,1390.3892403760049,None,None,0.007698971593526949,None,,NENA_005,001,2020_Sep_09_1349,test7,3.2.4,99.95261772639046,
170,84,Förklädet var högt värderad under 1800-talet.  ,4,,0,,inc,1,no,174,199,,,,,,,,,,,,,0,104,104,104,,,,,,,,,,,,,,,,,,,,,,,,,,,,,,,,,,,,,,,,,,,,,,,,,,,,,,,,,,,,,,,,,,,,,,,,,,,,,,,,,,,,,,,,,,,,,1394.889347469652,None,1395.3901467429937,None,1395.3901467429937,None,left,0,1.4287286806984412,1395.3901467429937,None,,,,,,,,,,,,,1396.8300960410957,None,,,,,,,,,,,,,,,,,,,,,,,,,,,,,,,,,1390.3992533914593,None,1390.3992533914593,None,1390.8992873894426,None,1394.3999400865728,1394.3999400865728,0.00987388031262526,None,1394.3999400865728,1394.3999400865728,1398.3306631338703,None,1398.3306631338703,None,None,0.007800965542628546,None,,NENA_005,001,2020_Sep_09_1349,test7,3.2.4,99.95261772639046,
170,89,Draken är för bred för den starka vinden. ,4,,0,,cor,1,no,171,199,,,,,,,,,,,,,0,105,105,105,,,,,,,,,,,,,,,,,,,,,,,,,,,,,,,,,,,,,,,,,,,,,,,,,,,,,,,,,,,,,,,,,,,,,,,,,,,,,,,,,,,,,,,,,,,,,1403.8310005157432,None,1404.331776696115,None,1404.331776696115,None,left,1,1.6150238370764782,1404.331776696115,None,,,,,,,,,,,,,1405.961805831745,None,,,,,,,,,,,,,,,,,,,,,,,,,,,,,,,,,1398.340548175784,None,1398.340548175784,None,1398.8406456794341,None,1403.3415998681135,1403.3415998681135,0.009879332818854891,None,1403.3415998681135,1403.3415998681135,1407.4623549633209,None,1407.4623549633209,None,None,0.00813709654721606,None,,NENA_005,001,2020_Sep_09_1349,test7,3.2.4,99.95261772639046,
170,96,Skämtet är ganska komisk men kan inte visas på teve.,4,,0,,inc,1,no,174,199,,,,,,,,,,,,,0,106,106,106,,,,,,,,,,,,,,,,,,,,,,,,,,,,,,,,,,,,,,,,,,,,,,,,,,,,,,,,,,,,,,,,,,,,,,,,,,,,,,,,,,,,,,,,,,,,,1413.962851109361,None,1414.4636343459174,None,1414.4636343459174,None,left,0,1.2750318169801176,1414.4636343459174,None,,,,,,,,,,,,,1415.7537182888623,None,,,,,,,,,,,,,,,,,,,,,,,,,,,,,,,,,1407.4723776008454,None,1407.4723776008454,None,1407.9724391820987,None,1413.4734369908324,1413.4734369908324,0.009876125462142227,None,1413.4734369908324,1413.4734369908324,1417.2541259759985,None,1417.2541259759985,None,None,0.008657650572786224,None,,NENA_005,001,2020_Sep_09_1349,test7,3.2.4,99.95261772639046,
150,102,Flickan köpte godis som vännen kunde inte äta.  ,6,,7,,inc,1,no,153,154,,,,,,,,,,,,,0,107,107,107,,,,,,,,,,,,,,,,,,,,,,,,,,,,,,,,,,,,,,,,,,,,,,,,,,,,,,,,,,,,,,,,,,,,,,,,,,,,,,,,,,,,,,,,,,,,,1422.754443792995,None,1423.2552241429298,None,1423.2552241429298,None,left,0,0.8591174893317657,1423.2552241429298,None,,,,,,,,,,,,,1424.125256267817,None,,,,,,,,,,,,,,,,,,,,,,,,,,,,,,,,,1417.2641325767395,None,1417.2641325767395,None,1417.7642201375825,None,1422.265028070788,1422.265028070788,0.009878049876533623,None,1422.265028070788,1422.265028070788,1425.6256132787141,None,1425.6256132787141,None,None,0.007628089005265792,None,,NENA_005,001,2020_Sep_09_1349,test7,3.2.4,99.95261772639046,
