trig_exp,trig_item,sentence,trig_w1,trig1,trig_w2,trig2,gram,task,paus,trig_1,trig_2,prac_trials.thisRepN,prac_trials.thisTrialN,prac_trials.thisN,prac_trials.thisIndex,trials_2.thisRepN,trials_2.thisTrialN,trials_2.thisN,trials_2.thisIndex,trials.thisRepN,trials.thisTrialN,trials.thisN,trials.thisIndex,exp_trials.thisRepN,exp_trials.thisTrialN,exp_trials.thisN,exp_trials.thisIndex,grating_1.started,grating_1.stopped,text_1.started,text_1.stopped,key_resp_1.keys,key_resp_1.rt,key_resp_1.started,key_resp_1.stopped,grating_2.started,grating_2.stopped,text_2.started,text_2.stopped,key_resp_2.keys,key_resp_2.rt,key_resp_2.started,key_resp_2.stopped,grating_3.started,grating_3.stopped,text_3.started,text_3.stopped,key_resp_3.keys,key_resp_3.rt,key_resp_3.started,key_resp_3.stopped,grating_4.started,grating_4.stopped,text_4.started,text_4.stopped,key_resp_4.keys,key_resp_4.rt,key_resp_4.started,key_resp_4.stopped,grating_5.started,grating_5.stopped,text_5.started,text_5.stopped,key_resp_5.keys,key_resp_5.rt,key_resp_5.started,key_resp_5.stopped,grating_6.started,grating_6.stopped,text_6.started,text_6.stopped,key_resp_6.keys,key_resp_6.rt,key_resp_6.started,key_resp_6.stopped,grating_7.started,grating_7.stopped,text_7.started,text_7.stopped,key_resp_7.keys,key_resp_7.rt,key_resp_7.started,key_resp_7.stopped,grating_8.started,grating_8.stopped,text_8.started,text_8.stopped,key_resp_8.keys,key_resp_8.rt,key_resp_8.started,key_resp_8.stopped,grating_9.started,grating_9.stopped,text_9.started,text_9.stopped,key_resp_9.keys,key_resp_9.rt,key_resp_9.started,key_resp_9.stopped,grating.started,grating.stopped,text.started,text.stopped,key_resp.keys,key_resp.rt,key_resp.started,key_resp.stopped,grating_14.started,grating_14.stopped,text_fix_4.started,text_fix_4.stopped,grating_16.started,grating_16.stopped,grating_40.started,grating_40.stopped,ISI_4.started,ISI_4.stopped,text_19.started,text_19.stopped,grating_24.started,grating_24.stopped,grating_35.started,grating_35.stopped,prompt.started,prompt.stopped,Button_Press.keys,Button_Press.corr,Button_Press.rt,Button_Press.started,Button_Press.stopped,grating_33.started,grating_33.stopped,grating_34.started,grating_34.stopped,Correct_Incorrect.started,Correct_Incorrect.stopped,Continue_text.started,Continue_text.stopped,Press_Bar.keys,Press_Bar.rt,Press_Bar.started,Press_Bar.stopped,grating_26.started,grating_26.stopped,grating_27.started,grating_27.stopped,text_10.started,text_10.stopped,key_resp_11.keys,key_resp_11.rt,key_resp_11.started,key_resp_11.stopped,grating_28.started,grating_28.stopped,text_11.started,text_11.stopped,key_resp_12.keys,key_resp_12.rt,key_resp_12.started,key_resp_12.stopped,grating_29.started,grating_29.stopped,text_12.started,text_12.stopped,key_resp_13.keys,key_resp_13.rt,key_resp_13.started,key_resp_13.stopped,grating_36.started,grating_36.stopped,text_14.started,text_14.stopped,key_resp_14.keys,key_resp_14.rt,key_resp_14.started,key_resp_14.stopped,grating_10.started,grating_10.stopped,text_fix.started,text_fix.stopped,grating_11.started,grating_11.stopped,grating_37.started,grating_37.stopped,ISI_2.started,ISI_2.stopped,text_15.started,text_15.stopped,grating_38.started,grating_38.stopped,text_fix_3.started,text_fix_3.stopped,key_resp_16.keys,key_resp_16.started,key_resp_16.stopped,key_resp_16.rt,participant,session,date,expName,psychopyVersion,frameRate,
,,,,,,,,,,,,,,,,,,,,,,,,,,,,13.991357857196817,None,13.991357857196817,None,space,105.0663923119082,13.991357857196817,None,,,,,,,,,,,,,,,,,,,,,,,,,,,,,,,,,,,,,,,,,,,,,,,,,,,,,,,,,,,,,,,,,,,,,,,,,,,,,,,,,,,,,,,,,,,,,,,,,,,,,,,,,,,,,,,,,,,,,,,,,,,,,,,,,,,,,,,,,,,,,,,,,,,,,,,,,,,,,,,,,,NENA_030,001,2021_Feb_27_1034,test7,3.2.4,99.98944900721055,
,,,,,,,,,,,,,,,,,,,,,,,,,,,,,,,,,,,,119.06992742780949,None,119.06992742780949,None,space,27.69926465612116,119.06992742780949,None,,,,,,,,,,,,,,,,,,,,,,,,,,,,,,,,,,,,,,,,,,,,,,,,,,,,,,,,,,,,,,,,,,,,,,,,,,,,,,,,,,,,,,,,,,,,,,,,,,,,,,,,,,,,,,,,,,,,,,,,,,,,,,,,,,,,,,,,,,,,,,,,,,,,,,,,,,NENA_030,001,2021_Feb_27_1034,test7,3.2.4,99.98944900721055,
,,,,,,,,,,,,,,,,,,,,,,,,,,,,,,,,,,,,,,,,,,,,146.7846882846925,None,146.7846882846925,None,space,11.688054406530682,146.7846882846925,None,,,,,,,,,,,,,,,,,,,,,,,,,,,,,,,,,,,,,,,,,,,,,,,,,,,,,,,,,,,,,,,,,,,,,,,,,,,,,,,,,,,,,,,,,,,,,,,,,,,,,,,,,,,,,,,,,,,,,,,,,,,,,,,,,,,,,,,,,,,,,,,,,,NENA_030,001,2021_Feb_27_1034,test7,3.2.4,99.98944900721055,
,,,,,,,,,,,,,,,,,,,,,,,,,,,,,,,,,,,,,,,,,,,,,,,,,,,,158.486760314202,None,158.486760314202,None,space,9.369738420025897,158.486760314202,None,,,,,,,,,,,,,,,,,,,,,,,,,,,,,,,,,,,,,,,,,,,,,,,,,,,,,,,,,,,,,,,,,,,,,,,,,,,,,,,,,,,,,,,,,,,,,,,,,,,,,,,,,,,,,,,,,,,,,,,,,,,,,,,,,,,,,,,,,,NENA_030,001,2021_Feb_27_1034,test7,3.2.4,99.98944900721055,
,,,,,,,,,,,,,,,,,,,,,,,,,,,,,,,,,,,,,,,,,,,,,,,,,,,,,,,,,,,,167.86838316397007,None,167.86838316397007,None,space,16.81170392137483,167.86838316397007,None,,,,,,,,,,,,,,,,,,,,,,,,,,,,,,,,,,,,,,,,,,,,,,,,,,,,,,,,,,,,,,,,,,,,,,,,,,,,,,,,,,,,,,,,,,,,,,,,,,,,,,,,,,,,,,,,,,,,,,,,,,,,,,,,,,NENA_030,001,2021_Feb_27_1034,test7,3.2.4,99.98944900721055,
,,,,,,,,,,,,,,,,,,,,,,,,,,,,,,,,,,,,,,,,,,,,,,,,,,,,,,,,,,,,,,,,,,,,184.69129124101346,None,184.69129124101346,None,space,15.96440668778996,184.69129124101346,None,,,,,,,,,,,,,,,,,,,,,,,,,,,,,,,,,,,,,,,,,,,,,,,,,,,,,,,,,,,,,,,,,,,,,,,,,,,,,,,,,,,,,,,,,,,,,,,,,,,,,,,,,,,,,,,,,,,,,,,,,,NENA_030,001,2021_Feb_27_1034,test7,3.2.4,99.98944900721055,
,,,,,,,,,,,,,,,,,,,,,,,,,,,,,,,,,,,,,,,,,,,,,,,,,,,,,,,,,,,,,,,,,,,,,,,,,,,,200.6740829690607,None,200.6740829690607,None,space,7.549405505889808,200.6740829690607,None,,,,,,,,,,,,,,,,,,,,,,,,,,,,,,,,,,,,,,,,,,,,,,,,,,,,,,,,,,,,,,,,,,,,,,,,,,,,,,,,,,,,,,,,,,,,,,,,,,,,,,,,,,,,,,,,,,NENA_030,001,2021_Feb_27_1034,test7,3.2.4,99.98944900721055,
,,,,,,,,,,,,,,,,,,,,,,,,,,,,,,,,,,,,,,,,,,,,,,,,,,,,,,,,,,,,,,,,,,,,,,,,,,,,,,,,,,,,208.23537611202028,None,208.23537611202028,None,space,11.275958100762182,208.23537611202028,None,,,,,,,,,,,,,,,,,,,,,,,,,,,,,,,,,,,,,,,,,,,,,,,,,,,,,,,,,,,,,,,,,,,,,,,,,,,,,,,,,,,,,,,,,,,,,,,,,,,,,,,,,,NENA_030,001,2021_Feb_27_1034,test7,3.2.4,99.98944900721055,
,,,,,,,,,,,,,,,,,,,,,,,,,,,,,,,,,,,,,,,,,,,,,,,,,,,,,,,,,,,,,,,,,,,,,,,,,,,,,,,,,,,,,,,,,,,,219.5273317187648,None,219.5273317187648,None,space,3.3759680114026196,219.5273317187648,None,,,,,,,,,,,,,,,,,,,,,,,,,,,,,,,,,,,,,,,,,,,,,,,,,,,,,,,,,,,,,,,,,,,,,,,,,,,,,,,,,,,,,,,,,,,,,,,,,,NENA_030,001,2021_Feb_27_1034,test7,3.2.4,99.98944900721055,
,,,,,,,,,,,,,,,,,,,,,,,,,,,,,,,,,,,,,,,,,,,,,,,,,,,,,,,,,,,,,,,,,,,,,,,,,,,,,,,,,,,,,,,,,,,,,,,,,,,,222.91792866968717,None,222.91792866968717,None,space,2.457145780393148,222.91792866968717,None,,,,,,,,,,,,,,,,,,,,,,,,,,,,,,,,,,,,,,,,,,,,,,,,,,,,,,,,,,,,,,,,,,,,,,,,,,,,,,,,,,,,,,,,,,NENA_030,001,2021_Feb_27_1034,test7,3.2.4,99.98944900721055,
199,1,Meningarna presenteras ord för ord.,99,99,99,99,cor,1,no,,,0,0,0,0,0,0,0,0,0,0,0,0,,,,,,,,,,,,,,,,,,,,,,,,,,,,,,,,,,,,,,,,,,,,,,,,,,,,,,,,,,,,,,,,,,,,,,,,,,,,,,,,,,,,,225.43777063826747,None,225.43777063826747,None,225.89842876253897,None,228.908994018655,228.908994018655,0.009883089720460703,None,228.908994018655,228.908994018655,229.39849531457548,None,229.90893243797564,None,229.90893243797564,None,left,1,7.785898088464819,229.90893243797564,None,237.710524298549,None,238.0502491932766,None,238.0502491932766,None,238.0502491932766,None,space,4.284330186625084,238.0502491932766,None,,,,,,,,,,,,,,,,,,,,,,,,,,,,,,,,,,,,,,,,,,,,,,,,,,,,,,,NENA_030,001,2021_Feb_27_1034,test7,3.2.4,99.98944900721055,
199,1,Meningarna presenteras ord för ord.,99,99,99,99,cor,1,no,,,0,0,0,0,0,0,0,0,,,,,,,,,,,,,,,,,,,,,,,,,,,,,,,,,,,,,,,,,,,,,,,,,,,,,,,,,,,,,,,,,,,,,,,,,,,,,,,,,,,,,,,,,,,,,,,,,,,,,,,,,,,,,,,,,,,,,,,,,,,,,,,,,,,,,,,,,,,,,,,,,,,,,,,,,,,,,,,,,,,,,,,,,,,,,,,,,,NENA_030,001,2021_Feb_27_1034,test7,3.2.4,99.98944900721055,
199,1,Meningarna presenteras ord för ord.,99,99,99,99,cor,1,no,,,0,0,0,0,,,,,,,,,,,,,,,,,,,,,,,,,,,,,,,,,,,,,,,,,,,,,,,,,,,,,,,,,,,,,,,,,,,,,,,,,,,,,,,,,,,,,,,,,,,,,,,,,,,,,,,,,,,,,,,,,,,,,,,,,,,,,,,,242.3522305837232,None,,,,,,,,,,,,,,,,,,,,,,,,,,,,,,,,,,,,,,,,,,,,,,,,,,,,,NENA_030,001,2021_Feb_27_1034,test7,3.2.4,99.98944900721055,
199,2,Läs meningen noggrant och ange ditt svar när du ser frågetecknet.,99,99,99,99,cor,1,no,,,0,1,1,1,0,0,0,0,0,0,0,0,,,,,,,,,,,,,,,,,,,,,,,,,,,,,,,,,,,,,,,,,,,,,,,,,,,,,,,,,,,,,,,,,,,,,,,,,,,,,,,,,,,,,243.85130639242743,None,243.85130639242743,None,244.35163979407662,None,250.35273541700462,250.35273541700462,0.009894315364363138,None,250.35273541700462,250.35273541700462,250.84218924448487,None,251.34291073271015,None,251.34291073271015,None,right,0,5.023360246014818,251.34291073271015,None,256.38458802364767,None,256.70359422693946,None,256.70359422693946,None,256.70359422693946,None,space,2.3986309845113283,256.70359422693946,None,,,,,,,,,,,,,,,,,,,,,,,,,,,,,,,,,,,,,,,,,,,,,,,,,,,,,,,NENA_030,001,2021_Feb_27_1034,test7,3.2.4,99.98944900721055,
199,2,Läs meningen noggrant och ange ditt svar när du ser frågetecknet.,99,99,99,99,cor,1,no,,,0,1,1,1,0,0,0,0,,,,,,,,,,,,,,,,,,,,,,,,,,,,,,,,,,,,,,,,,,,,,,,,,,,,,,,,,,,,,,,,,,,,,,,,,,,,,,,,,,,,,,,,,,,,,,,,,,,,,,,,,,,,,,,,,,,,,,,,,,,,,,,,,,,,,,,,,,,,,,,,,,,,,,,,,,,,,,,,,,,,,,,,,,,,,,,,,,NENA_030,001,2021_Feb_27_1034,test7,3.2.4,99.98944900721055,
199,2,Läs meningen noggrant och ange ditt svar när du ser frågetecknet.,99,99,99,99,cor,1,no,,,0,1,1,1,,,,,,,,,,,,,,,,,,,,,,,,,,,,,,,,,,,,,,,,,,,,,,,,,,,,,,,,,,,,,,,,,,,,,,,,,,,,,,,,,,,,,,,,,,,,,,,,,,,,,,,,,,,,,,,,,,,,,,,,,,,,,,,,259.1148684947784,None,,,,,,,,,,,,,,,,,,,,,,,,,,,,,,,,,,,,,,,,,,,,,,,,,,,,,NENA_030,001,2021_Feb_27_1034,test7,3.2.4,99.98944900721055,
199,3,I den här meningen finns det en misstag.,99,99,99,99,inc,1,no,,,0,2,2,2,0,0,0,0,0,0,0,0,,,,,,,,,,,,,,,,,,,,,,,,,,,,,,,,,,,,,,,,,,,,,,,,,,,,,,,,,,,,,,,,,,,,,,,,,,,,,,,,,,,,,260.6144857002919,None,260.6144857002919,None,261.11458047680753,None,265.6053412900701,265.6053412900701,0.009899447088173474,None,265.6053412900701,265.6053412900701,266.0948294359496,None,266.5955153228442,None,266.5955153228442,None,right,1,6.042327416135777,266.5955153228442,None,272.6562685122908,None,272.9766779211768,None,272.9766779211768,None,272.9766779211768,None,space,10.380896390185626,272.9766779211768,None,,,,,,,,,,,,,,,,,,,,,,,,,,,,,,,,,,,,,,,,,,,,,,,,,,,,,,,NENA_030,001,2021_Feb_27_1034,test7,3.2.4,99.98944900721055,
199,3,I den här meningen finns det en misstag.,99,99,99,99,inc,1,no,,,0,2,2,2,0,0,0,0,,,,,,,,,,,,,,,,,,,,,,,,,,,,,,,,,,,,,,,,,,,,,,,,,,,,,,,,,,,,,,,,,,,,,,,,,,,,,,,,,,,,,,,,,,,,,,,,,,,,,,,,,,,,,,,,,,,,,,,,,,,,,,,,,,,,,,,,,,,,,,,,,,,,,,,,,,,,,,,,,,,,,,,,,,,,,,,,,,NENA_030,001,2021_Feb_27_1034,test7,3.2.4,99.98944900721055,
199,3,I den här meningen finns det en misstag.,99,99,99,99,inc,1,no,,,0,2,2,2,,,,,,,,,,,,,,,,,,,,,,,,,,,,,,,,,,,,,,,,,,,,,,,,,,,,,,,,,,,,,,,,,,,,,,,,,,,,,,,,,,,,,,,,,,,,,,,,,,,,,,,,,,,,,,,,,,,,,,,,,,,,,,,,283.3784257861398,None,,,,,,,,,,,,,,,,,,,,,,,,,,,,,,,,,,,,,,,,,,,,,,,,,,,,,NENA_030,001,2021_Feb_27_1034,test7,3.2.4,99.98944900721055,
199,4,I det här meningen finns det ett till misstag.,99,99,99,99,inc,1,no,,,0,3,3,3,0,0,0,0,0,0,0,0,,,,,,,,,,,,,,,,,,,,,,,,,,,,,,,,,,,,,,,,,,,,,,,,,,,,,,,,,,,,,,,,,,,,,,,,,,,,,,,,,,,,,284.87870370103064,None,284.87870370103064,None,285.37877217746336,None,290.37965226801316,290.37965226801316,0.009898164158585132,None,290.37965226801316,290.37965226801316,290.869127584584,None,291.3698477898788,None,291.3698477898788,None,left,0,0.683511869195172,291.3698477898788,None,292.07076197431434,None,292.3900356686836,None,292.3900356686836,None,292.3900356686836,None,space,5.671158207502231,292.3900356686836,None,,,,,,,,,,,,,,,,,,,,,,,,,,,,,,,,,,,,,,,,,,,,,,,,,,,,,,,NENA_030,001,2021_Feb_27_1034,test7,3.2.4,99.98944900721055,
199,4,I det här meningen finns det ett till misstag.,99,99,99,99,inc,1,no,,,0,3,3,3,0,0,0,0,,,,,,,,,,,,,,,,,,,,,,,,,,,,,,,,,,,,,,,,,,,,,,,,,,,,,,,,,,,,,,,,,,,,,,,,,,,,,,,,,,,,,,,,,,,,,,,,,,,,,,,,,,,,,,,,,,,,,,,,,,,,,,,,,,,,,,,,,,,,,,,,,,,,,,,,,,,,,,,,,,,,,,,,,,,,,,,,,,NENA_030,001,2021_Feb_27_1034,test7,3.2.4,99.98944900721055,
199,4,I det här meningen finns det ett till misstag.,99,99,99,99,inc,1,no,,,0,3,3,3,,,,,,,,,,,,,,,,,,,,,,,,,,,,,,,,,,,,,,,,,,,,,,,,,,,,,,,,,,,,,,,,,,,,,,,,,,,,,,,,,,,,,,,,,,,,,,,,,,,,,,,,,,,,,,,,,,,,,,,,,,,,,,,,298.080969613462,None,,,,,,,,,,,,,,,,,,,,,,,,,,,,,,,,,,,,,,,,,,,,,,,,,,,,,NENA_030,001,2021_Feb_27_1034,test7,3.2.4,99.98944900721055,
199,5,Ibland kan meningarna låta lite märkliga men ändå vara grammatiskt korrekta.,99,99,99,99,cor,1,no,,,0,4,4,4,0,0,0,0,0,0,0,0,,,,,,,,,,,,,,,,,,,,,,,,,,,,,,,,,,,,,,,,,,,,,,,,,,,,,,,,,,,,,,,,,,,,,,,,,,,,,,,,,,,,,299.58126420645385,None,299.58126420645385,None,300.08133075849037,None,306.08239687401056,306.08239687401056,0.009895598295770469,None,306.08239687401056,306.08239687401056,306.5718465319651,None,307.0725628884675,None,307.0725628884675,None,right,0,0.620390710169886,307.0725628884675,None,307.7036606186093,None,308.00279165748543,None,308.00279165748543,None,308.00279165748543,None,space,2.2581420403275843,308.00279165748543,None,,,,,,,,,,,,,,,,,,,,,,,,,,,,,,,,,,,,,,,,,,,,,,,,,,,,,,,NENA_030,001,2021_Feb_27_1034,test7,3.2.4,99.98944900721055,
199,5,Ibland kan meningarna låta lite märkliga men ändå vara grammatiskt korrekta.,99,99,99,99,cor,1,no,,,0,4,4,4,0,0,0,0,,,,,,,,,,,,,,,,,,,,,,,,,,,,,,,,,,,,,,,,,,,,,,,,,,,,,,,,,,,,,,,,,,,,,,,,,,,,,,,,,,,,,,,,,,,,,,,,,,,,,,,,,,,,,,,,,,,,,,,,,,,,,,,,,,,,,,,,,,,,,,,,,,,,,,,,,,,,,,,,,,,,,,,,,,,,,,,,,,NENA_030,001,2021_Feb_27_1034,test7,3.2.4,99.98944900721055,
199,5,Ibland kan meningarna låta lite märkliga men ändå vara grammatiskt korrekta.,99,99,99,99,cor,1,no,,,0,4,4,4,,,,,,,,,,,,,,,,,,,,,,,,,,,,,,,,,,,,,,,,,,,,,,,,,,,,,,,,,,,,,,,,,,,,,,,,,,,,,,,,,,,,,,,,,,,,,,,,,,,,,,,,,,,,,,,,,,,,,,,,,,,,,,,,310.2830867059174,None,,,,,,,,,,,,,,,,,,,,,,,,,,,,,,,,,,,,,,,,,,,,,,,,,,,,,NENA_030,001,2021_Feb_27_1034,test7,3.2.4,99.98944900721055,
199,6,De gröna idéerna missade bussen i morse.,99,99,99,99,cor,1,no,,,0,5,5,5,0,0,0,0,0,0,0,0,,,,,,,,,,,,,,,,,,,,,,,,,,,,,,,,,,,,,,,,,,,,,,,,,,,,,,,,,,,,,,,,,,,,,,,,,,,,,,,,,,,,,311.78335948908534,None,311.78335948908534,None,312.2834440021534,None,316.28412523842417,316.28412523842417,0.00989623976238363,None,316.28412523842417,316.28412523842417,316.7735934988759,None,317.2743021577935,None,317.2743021577935,None,left,1,2.2503498392006804,317.2743021577935,None,319.54471382784504,None,319.8647935235085,None,319.8647935235085,None,319.8647935235085,None,space,2.1878836163632513,319.8647935235085,None,,,,,,,,,,,,,,,,,,,,,,,,,,,,,,,,,,,,,,,,,,,,,,,,,,,,,,,NENA_030,001,2021_Feb_27_1034,test7,3.2.4,99.98944900721055,
199,6,De gröna idéerna missade bussen i morse.,99,99,99,99,cor,1,no,,,0,5,5,5,0,0,0,0,,,,,,,,,,,,,,,,,,,,,,,,,,,,,,,,,,,,,,,,,,,,,,,,,,,,,,,,,,,,,,,,,,,,,,,,,,,,,,,,,,,,,,,,,,,,,,,,,,,,,,,,,,,,,,,,,,,,,,,,,,,,,,,,,,,,,,,,,,,,,,,,,,,,,,,,,,,,,,,,,,,,,,,,,,,,,,,,,,NENA_030,001,2021_Feb_27_1034,test7,3.2.4,99.98944900721055,
199,6,De gröna idéerna missade bussen i morse.,99,99,99,99,cor,1,no,,,0,5,5,5,,,,,,,,,,,,,,,,,,,,,,,,,,,,,,,,,,,,,,,,,,,,,,,,,,,,,,,,,,,,,,,,,,,,,,,,,,,,,,,,,,,,,,,,,,,,,,,,,,,,,,,,,,,,,,,,,,,,,,,,,,,,,,,,322.0751406172367,None,,,,,,,,,,,,,,,,,,,,,,,,,,,,,,,,,,,,,,,,,,,,,,,,,,,,,NENA_030,001,2021_Feb_27_1034,test7,3.2.4,99.98944900721055,
199,7,Det bruna bordet är mer än hundra år gamla.,99,99,99,99,inc,1,no,,,0,6,6,6,0,0,0,0,0,0,0,0,,,,,,,,,,,,,,,,,,,,,,,,,,,,,,,,,,,,,,,,,,,,,,,,,,,,,,,,,,,,,,,,,,,,,,,,,,,,,,,,,,,,,323.5753925527788,None,323.5753925527788,None,324.07549342321545,None,329.0763632503176,329.0763632503176,0.009901371484374977,None,329.0763632503176,329.0763632503176,329.565827661977,None,330.0665013610287,None,330.0665013610287,None,right,1,4.9699011598013385,330.0665013610287,None,335.05739287286997,None,335.3571358697518,None,335.3571358697518,None,335.3571358697518,None,space,1.6471587412006556,335.3571358697518,None,,,,,,,,,,,,,,,,,,,,,,,,,,,,,,,,,,,,,,,,,,,,,,,,,,,,,,,NENA_030,001,2021_Feb_27_1034,test7,3.2.4,99.98944900721055,
199,7,Det bruna bordet är mer än hundra år gamla.,99,99,99,99,inc,1,no,,,0,6,6,6,0,0,0,0,,,,,,,,,,,,,,,,,,,,,,,,,,,,,,,,,,,,,,,,,,,,,,,,,,,,,,,,,,,,,,,,,,,,,,,,,,,,,,,,,,,,,,,,,,,,,,,,,,,,,,,,,,,,,,,,,,,,,,,,,,,,,,,,,,,,,,,,,,,,,,,,,,,,,,,,,,,,,,,,,,,,,,,,,,,,,,,,,,NENA_030,001,2021_Feb_27_1034,test7,3.2.4,99.98944900721055,
199,7,Det bruna bordet är mer än hundra år gamla.,99,99,99,99,inc,1,no,,,0,6,6,6,,,,,,,,,,,,,,,,,,,,,,,,,,,,,,,,,,,,,,,,,,,,,,,,,,,,,,,,,,,,,,,,,,,,,,,,,,,,,,,,,,,,,,,,,,,,,,,,,,,,,,,,,,,,,,,,,,,,,,,,,,,,,,,,337.02770841932943,None,,,,,,,,,,,,,,,,,,,,,,,,,,,,,,,,,,,,,,,,,,,,,,,,,,,,,NENA_030,001,2021_Feb_27_1034,test7,3.2.4,99.98944900721055,
199,8,På våren gilla alla att tillbringa tid i solen.,99,99,99,99,inc,1,no,,,0,7,7,7,0,0,0,0,0,0,0,0,,,,,,,,,,,,,,,,,,,,,,,,,,,,,,,,,,,,,,,,,,,,,,,,,,,,,,,,,,,,,,,,,,,,,,,,,,,,,,,,,,,,,338.5280058989156,None,338.5280058989156,None,339.0280743753483,None,344.0289358634009,344.0289358634009,0.00989591902907705,None,344.0289358634009,344.0289358634009,344.5184018787231,None,345.0191079717788,None,345.0191079717788,None,left,0,0.20092236312029854,345.0191079717788,None,345.23940130749816,None,345.55898547112884,None,345.55898547112884,None,345.55898547112884,None,space,1.7489920172838538,345.55898547112884,None,,,,,,,,,,,,,,,,,,,,,,,,,,,,,,,,,,,,,,,,,,,,,,,,,,,,,,,NENA_030,001,2021_Feb_27_1034,test7,3.2.4,99.98944900721055,
199,8,På våren gilla alla att tillbringa tid i solen.,99,99,99,99,inc,1,no,,,0,7,7,7,0,0,0,0,,,,,,,,,,,,,,,,,,,,,,,,,,,,,,,,,,,,,,,,,,,,,,,,,,,,,,,,,,,,,,,,,,,,,,,,,,,,,,,,,,,,,,,,,,,,,,,,,,,,,,,,,,,,,,,,,,,,,,,,,,,,,,,,,,,,,,,,,,,,,,,,,,,,,,,,,,,,,,,,,,,,,,,,,,,,,,,,,,NENA_030,001,2021_Feb_27_1034,test7,3.2.4,99.98944900721055,
199,8,På våren gilla alla att tillbringa tid i solen.,99,99,99,99,inc,1,no,,,0,7,7,7,,,,,,,,,,,,,,,,,,,,,,,,,,,,,,,,,,,,,,,,,,,,,,,,,,,,,,,,,,,,,,,,,,,,,,,,,,,,,,,,,,,,,,,,,,,,,,,,,,,,,,,,,,,,,,,,,,,,,,,,,,,,,,,,347.3191226292638,None,,,,,,,,,,,,,,,,,,,,,,,,,,,,,,,,,,,,,,,,,,,,,,,,,,,,,NENA_030,001,2021_Feb_27_1034,test7,3.2.4,99.98944900721055,
199,9,Tidningen avskedade dem journalist som publicerade falska fakta.,99,99,99,99,inc,1,no,,,0,8,8,8,0,0,0,0,0,0,0,0,,,,,,,,,,,,,,,,,,,,,,,,,,,,,,,,,,,,,,,,,,,,,,,,,,,,,,,,,,,,,,,,,,,,,,,,,,,,,,,,,,,,,348.81978638560213,None,348.81978638560213,None,349.31986929500636,None,353.8206376102071,353.8206376102071,0.0098968812271778,None,353.8206376102071,353.8206376102071,354.31012575608656,None,354.8108186991012,None,354.8108186991012,None,right,1,5.840870391592034,354.8108186991012,None,360.6718118607596,None,360.9919383833976,None,360.9919383833976,None,360.9919383833976,None,space,1.979795763826587,360.9919383833976,None,,,,,,,,,,,,,,,,,,,,,,,,,,,,,,,,,,,,,,,,,,,,,,,,,,,,,,,NENA_030,001,2021_Feb_27_1034,test7,3.2.4,99.98944900721055,
199,9,Tidningen avskedade dem journalist som publicerade falska fakta.,99,99,99,99,inc,1,no,,,0,8,8,8,0,0,0,0,,,,,,,,,,,,,,,,,,,,,,,,,,,,,,,,,,,,,,,,,,,,,,,,,,,,,,,,,,,,,,,,,,,,,,,,,,,,,,,,,,,,,,,,,,,,,,,,,,,,,,,,,,,,,,,,,,,,,,,,,,,,,,,,,,,,,,,,,,,,,,,,,,,,,,,,,,,,,,,,,,,,,,,,,,,,,,,,,,NENA_030,001,2021_Feb_27_1034,test7,3.2.4,99.98944900721055,
199,9,Tidningen avskedade dem journalist som publicerade falska fakta.,99,99,99,99,inc,1,no,,,0,8,8,8,,,,,,,,,,,,,,,,,,,,,,,,,,,,,,,,,,,,,,,,,,,,,,,,,,,,,,,,,,,,,,,,,,,,,,,,,,,,,,,,,,,,,,,,,,,,,,,,,,,,,,,,,,,,,,,,,,,,,,,,,,,,,,,,362.9922276842999,None,,,,,,,,,,,,,,,,,,,,,,,,,,,,,,,,,,,,,,,,,,,,,,,,,,,,,NENA_030,001,2021_Feb_27_1034,test7,3.2.4,99.98944900721055,
199,10,Bra jobbat!,99,99,99,99,cor,1,no,,,0,9,9,9,0,0,0,0,0,0,0,0,,,,,,,,,,,,,,,,,,,,,,,,,,,,,,,,,,,,,,,,,,,,,,,,,,,,,,,,,,,,,,,,,,,,,,,,,,,,,,,,,,,,,364.49249982600213,None,364.49249982600213,None,364.99258626346636,None,366.4928433307314,366.4928433307314,0.009898805624288798,None,366.4928433307314,366.4928433307314,366.98231479851074,None,367.4830067793273,None,367.4830067793273,None,left,1,2.7045564250620373,367.4830067793273,None,370.20414572682967,None,370.50374311106225,None,370.50374311106225,None,370.50374311106225,None,space,1.3476726512180903,370.50374311106225,None,,,,,,,,,,,,,,,,,,,,,,,,,,,,,,,,,,,,,,,,,,,,,,,,,,,,,,,NENA_030,001,2021_Feb_27_1034,test7,3.2.4,99.98944900721055,
199,10,Bra jobbat!,99,99,99,99,cor,1,no,,,0,9,9,9,0,0,0,0,,,,,,,,,,,,,,,,,,,,,,,,,,,,,,,,,,,,,,,,,,,,,,,,,,,,,,,,,,,,,,,,,,,,,,,,,,,,,,,,,,,,,,,,,,,,,,,,,,,,,,,,,,,,,,,,,,,,,,,,,,,,,,,,,,,,,,,,,,,,,,,,,,,,,,,,,,,,,,,,,,,,,,,,,,,,,,,,,,NENA_030,001,2021_Feb_27_1034,test7,3.2.4,99.98944900721055,
199,10,Bra jobbat!,99,99,99,99,cor,1,no,,,0,9,9,9,,,,,,,,,,,,,,,,,,,,,,,,,,,,,,,,,,,,,,,,,,,,,,,,,,,,,,,,,,,,,,,,,,,,,,,,,,,,,,,,,,,,,,,,,,,,,,,,,,,,,,,,,,,,,,,,,,,,,,,,,,,,,,,,371.87378718935815,None,,,,,,,,,,,,,,,,,,,,,,,,,,,,,,,,,,,,,,,,,,,,,,,,,,,,,NENA_030,001,2021_Feb_27_1034,test7,3.2.4,99.98944900721055,
,,,,,,,,,,,,,,,,,,,,,,,,,,,,,,,,,,,,,,,,,,,,,,,,,,,,,,,,,,,,,,,,,,,,,,,,,,,,,,,,,,,,,,,,,,,,,,,,,,,,,,,,,,,,,,,,,,,,,,,,,,,,,,,,,,,,,,,,,,,,,,,,,373.37402725778975,None,373.37402725778975,None,space,6.453147205728783,373.37402725778975,None,,,,,,,,,,,,,,,,,,,,,,,,,,,,,,,,,,,,,,,,,,,,,NENA_030,001,2021_Feb_27_1034,test7,3.2.4,99.98944900721055,
,,,,,,,,,,,,,,,,,,,,,,,,,,,,,,,,,,,,,,,,,,,,,,,,,,,,,,,,,,,,,,,,,,,,,,,,,,,,,,,,,,,,,,,,,,,,,,,,,,,,,,,,,,,,,,,,,,,,,,,,,,,,,,,,,,,,,,,,,,,,,,,,,,,,,,,,,379.8451002145375,None,379.8451002145375,None,space,8.246056511178722,379.8451002145375,None,,,,,,,,,,,,,,,,,,,,,,,,,,,,,,,,,,,,,NENA_030,001,2021_Feb_27_1034,test7,3.2.4,99.98944900721055,
,,,,,,,,,,,,,,,,,,,,,,,,,,,,,,,,,,,,,,,,,,,,,,,,,,,,,,,,,,,,,,,,,,,,,,,,,,,,,,,,,,,,,,,,,,,,,,,,,,,,,,,,,,,,,,,,,,,,,,,,,,,,,,,,,,,,,,,,,,,,,,,,,,,,,,,,,,,,,,,,,388.1065788372216,None,388.1065788372216,None,space,285.71325116802836,388.1065788372216,None,,,,,,,,,,,,,,,,,,,,,,,,,,,,,NENA_030,001,2021_Feb_27_1034,test7,3.2.4,99.98944900721055,
,,,,,,,,,,,,,,,,,,,,,,,,,,,,,,,,,,,,,,,,,,,,,,,,,,,,,,,,,,,,,,,,,,,,,,,,,,,,,,,,,,,,,,,,,,,,,,,,,,,,,,,,,,,,,,,,,,,,,,,,,,,,,,,,,,,,,,,,,,,,,,,,,,,,,,,,,,,,,,,,,,,,,,,,,673.836058438782,None,673.836058438782,None,space,4.0317156537767005,673.836058438782,None,,,,,,,,,,,,,,,,,,,,,NENA_030,001,2021_Feb_27_1034,test7,3.2.4,99.98944900721055,
180,28,Berget som de underbetalda gruvarbetarna hade fått i uppgift att spränga var fullkomligt ogenomtränglig och de gav därför upp.,14,,0,,inc,1,no,182,199,,,,,,,,,,,,,0,0,0,0,,,,,,,,,,,,,,,,,,,,,,,,,,,,,,,,,,,,,,,,,,,,,,,,,,,,,,,,,,,,,,,,,,,,,,,,,,,,,,,,,,,,,,,,,,,,,688.8880864156545,None,689.3887726232824,None,689.3887726232824,None,left,0,0.5986889729847462,689.3887726232824,None,,,,,,,,,,,,,690.0088227153165,None,,,,,,,,,,,,,,,,,,,,,,,,,,,,,,,,,677.9861972679346,None,677.9861972679346,None,678.3968191654467,None,688.3986252113227,688.3986252113227,0.009855185975538916,None,688.3986252113227,688.3986252113227,691.5091157367177,None,691.5091157367177,None,None,0.008091797549241164,None,,NENA_030,001,2021_Feb_27_1034,test7,3.2.4,99.98944900721055,
170,110,Vattnet var mycket kall mot den varma huden. ,4,,0,,inc,1,no,174,199,,,,,,,,,,,,,0,1,1,1,,,,,,,,,,,,,,,,,,,,,,,,,,,,,,,,,,,,,,,,,,,,,,,,,,,,,,,,,,,,,,,,,,,,,,,,,,,,,,,,,,,,,,,,,,,,,697.0094738027128,None,697.510177650639,None,697.510177650639,None,right,1,1.397055545452531,697.510177650639,None,,,,,,,,,,,,,698.9201882316111,None,,,,,,,,,,,,,,,,,,,,,,,,,,,,,,,,,691.5188383959385,None,691.5188383959385,None,692.0192227940879,None,696.5199943166162,696.5199943166162,0.009876354334664939,None,696.5199943166162,696.5199943166162,700.4206910122028,None,700.4206910122028,None,None,0.007751820880002924,None,,NENA_030,001,2021_Feb_27_1034,test7,3.2.4,99.98944900721055,
130,68,Kockar skär ofta grönsaker med vass kniv.,3,,4,,cor,1,no,137,138,,,,,,,,,,,,,0,2,2,2,,,,,,,,,,,,,,,,,,,,,,,,,,,,,,,,,,,,,,,,,,,,,,,,,,,,,,,,,,,,,,,,,,,,,,,,,,,,,,,,,,,,,,,,,,,,,705.4209430760384,None,705.9216376227159,None,705.9216376227159,None,left,1,0.8493419045944393,705.9216376227159,None,,,,,,,,,,,,,706.7822279440934,None,,,,,,,,,,,,,,,,,,,,,,,,,,,,,,,,,700.4306975198697,None,700.4306975198697,None,700.9307730524224,None,704.9314770607152,704.9314770607152,0.009870901878457516,None,704.9314770607152,704.9314770607152,708.2820510920782,None,708.2820510920782,None,None,0.007854776077692804,None,,NENA_030,001,2021_Feb_27_1034,test7,3.2.4,99.98944900721055,
160,23,Mannen med den vita bilen upptäckte en allvarlig balkongbrand som de nya hyresgästerna i lägenheten bredvid inte hade brytt sig om.,17,,18,,cor,1,no,161,162,,,,,,,,,,,,,0,3,3,3,,,,,,,,,,,,,,,,,,,,,,,,,,,,,,,,,,,,,,,,,,,,,,,,,,,,,,,,,,,,,,,,,,,,,,,,,,,,,,,,,,,,,,,,,,,,,720.2835177706766,None,720.7842161661465,None,720.7842161661465,None,left,1,0.19448718207786442,720.7842161661465,None,,,,,,,,,,,,,720.99469411882,None,,,,,,,,,,,,,,,,,,,,,,,,,,,,,,,,,708.2920604863393,None,708.2920604863393,None,708.7921267176434,None,719.7940540004829,719.7940540004829,0.00987731653276569,None,719.7940540004829,719.7940540004829,722.4945124558143,None,722.4945124558143,None,None,0.007876906635829073,None,,NENA_030,001,2021_Feb_27_1034,test7,3.2.4,99.98944900721055,
150,12,Turisterna hade skidor som instruktörerna inte ville godkänna.  ,6,,7,,cor,1,no,151,152,,,,,,,,,,,,,0,4,4,4,,,,,,,,,,,,,,,,,,,,,,,,,,,,,,,,,,,,,,,,,,,,,,,,,,,,,,,,,,,,,,,,,,,,,,,,,,,,,,,,,,,,,,,,,,,,,727.9948220911701,None,728.4955596160316,None,728.4955596160316,None,left,1,0.4989350070454748,728.4955596160316,None,,,,,,,,,,,,,729.0058928220333,None,,,,,,,,,,,,,,,,,,,,,,,,,,,,,,,,,722.5045314720574,None,722.5045314720574,None,723.0046377949493,None,727.5053807722661,727.5053807722661,0.009876354333755444,None,727.5053807722661,727.5053807722661,730.5058853168883,None,730.5058853168883,None,None,0.007985955756339536,None,,NENA_030,001,2021_Feb_27_1034,test7,3.2.4,99.98944900721055,
180,44,Bröllopet som för att vara en vuxenfest avslutades alldeles för tidigt var ändå jättelyckad enligt de flesta gästerna. ,14,,0,,inc,1,no,182,199,,,,,,,,,,,,,0,5,5,5,,,,,,,,,,,,,,,,,,,,,,,,,,,,,,,,,,,,,,,,,,,,,,,,,,,,,,,,,,,,,,,,,,,,,,,,,,,,,,,,,,,,,,,,,,,,,741.0071048709351,None,741.5078103225251,None,741.5078103225251,None,left,0,1.246409317157486,741.5078103225251,None,,,,,,,,,,,,,742.7683533679019,None,,,,,,,,,,,,,,,,,,,,,,,,,,,,,,,,,730.5159181246372,None,730.5159181246372,None,731.0159843559413,None,740.5176317994928,740.5176317994928,0.009872184808955353,None,740.5176317994928,740.5176317994928,744.2683086577616,None,744.2683086577616,None,None,0.00798948381543596,None,,NENA_030,001,2021_Feb_27_1034,test7,3.2.4,99.98944900721055,
180,42,Vasen som hade prytt det lilla vardagsrummet sedan många år tillbaka var nu sprucken men fortfarande mycket omtyckt. ,14,,0,,cor,1,no,181,199,,,,,,,,,,,,,0,6,6,6,,,,,,,,,,,,,,,,,,,,,,,,,,,,,,,,,,,,,,,,,,,,,,,,,,,,,,,,,,,,,,,,,,,,,,,,,,,,,,,,,,,,,,,,,,,,,754.7694974214692,None,755.2702009486629,None,755.2702009486629,None,left,1,5.763358918181439,755.2702009486629,None,,,,,,,,,,,,,761.0511488485208,None,,,,,,,,,,,,,,,,,,,,,,,,,,,,,,,,,744.2783026568532,None,744.2783026568532,None,744.7783849247926,None,754.2800118414516,754.2800118414516,0.009875071402348112,None,754.2800118414516,754.2800118414516,762.5514431528535,None,762.5514431528535,None,None,0.008762449640926206,None,,NENA_030,001,2021_Feb_27_1034,test7,3.2.4,99.98944900721055,
140,40,Apotekare säljer ofta medicin som är onödigt.,3,,4,,inc,1,no,133,134,,,,,,,,,,,,,0,7,7,7,,,,,,,,,,,,,,,,,,,,,,,,,,,,,,,,,,,,,,,,,,,,,,,,,,,,,,,,,,,,,,,,,,,,,,,,,,,,,,,,,,,,,,,,,,,,,767.5516923300938,None,768.0523977816838,None,768.0523977816838,None,left,0,3.212973573869931,768.0523977816838,None,,,,,,,,,,,,,771.282750898773,None,,,,,,,,,,,,,,,,,,,,,,,,,,,,,,,,,762.5614656971557,None,762.5614656971557,None,763.0615409089751,None,767.0622083537392,767.0622083537392,0.009872826274659019,None,767.0622083537392,767.0622083537392,772.783220643896,None,772.783220643896,None,None,0.008001350925951556,None,,NENA_030,001,2021_Feb_27_1034,test7,3.2.4,99.98944900721055,
170,120,Filten är väldigt tjock och skyddar bra mot kylan. ,4,,0,,cor,1,no,171,199,,,,,,,,,,,,,0,8,8,8,,,,,,,,,,,,,,,,,,,,,,,,,,,,,,,,,,,,,,,,,,,,,,,,,,,,,,,,,,,,,,,,,,,,,,,,,,,,,,,,,,,,,,,,,,,,,778.7836574497705,None,779.28436161843,None,779.28436161843,None,left,1,8.076834727398818,779.28436161843,None,,,,,,,,,,,,,787.3756180920182,None,,,,,,,,,,,,,,,,,,,,,,,,,,,,,,,,,772.793244791862,None,772.793244791862,None,773.2933110231661,None,778.2941917551807,778.2941917551807,0.00986961894795968,None,778.2941917551807,778.2941917551807,788.8760034844398,None,788.8760034844398,None,None,0.008287444501547725,None,,NENA_030,001,2021_Feb_27_1034,test7,3.2.4,99.98944900721055,
130,31,Arbetsgivare sänker ibland lönen utan att informera facket.,3,,4,,cor,1,no,133,134,,,,,,,,,,,,,0,9,9,9,,,,,,,,,,,,,,,,,,,,,,,,,,,,,,,,,,,,,,,,,,,,,,,,,,,,,,,,,,,,,,,,,,,,,,,,,,,,,,,,,,,,,,,,,,,,,794.376365078494,None,794.8770814349964,None,794.8770814349964,None,right,0,3.6596669960599684,794.8770814349964,None,,,,,,,,,,,,,798.5480914639875,None,,,,,,,,,,,,,,,,,,,,,,,,,,,,,,,,,788.8860173689591,None,788.8860173689591,None,789.3861018820271,None,793.8868689142973,793.8868689142973,0.009875392135654693,None,793.8868689142973,793.8868689142973,800.0479479681743,None,800.0479479681743,None,None,0.007885887152042415,None,,NENA_030,001,2021_Feb_27_1034,test7,3.2.4,99.98944900721055,
160,18,Den lättretade försäljaren hade en fruktansvärt dålig attityd som minst hälften av hans nuvarande kunder kunde inte stå ut med.,16,,17,,inc,1,no,163,164,,,,,,,,,,,,,0,10,10,10,,,,,,,,,,,,,,,,,,,,,,,,,,,,,,,,,,,,,,,,,,,,,,,,,,,,,,,,,,,,,,,,,,,,,,,,,,,,,,,,,,,,,,,,,,,,,811.5493310959018,None,812.0500317365013,None,812.0500317365013,None,left,0,2.134334404259789,812.0500317365013,None,,,,,,,,,,,,,814.2002003937951,None,,,,,,,,,,,,,,,,,,,,,,,,,,,,,,,,,800.057965701485,None,800.057965701485,None,800.558056308475,None,811.0598500061415,811.0598500061415,0.009875071403257607,None,811.0598500061415,811.0598500061415,815.7006579510752,None,815.7006579510752,None,None,0.008101419531158172,None,,NENA_030,001,2021_Feb_27_1034,test7,3.2.4,99.98944900721055,
170,18,Kexet är för sött för morföräldrarna.  ,4,,0,,cor,1,no,173,199,,,,,,,,,,,,,0,11,11,11,,,,,,,,,,,,,,,,,,,,,,,,,,,,,,,,,,,,,,,,,,,,,,,,,,,,,,,,,,,,,,,,,,,,,,,,,,,,,,,,,,,,,,,,,,,,,820.2008043334836,None,820.7015296705013,None,820.7015296705013,None,left,1,3.962489026932417,820.7015296705013,None,,,,,,,,,,,,,824.6819075641915,None,,,,,,,,,,,,,,,,,,,,,,,,,,,,,,,,,815.7106647794753,None,815.7106647794753,None,816.2107306900461,None,819.7113527511328,819.7113527511328,0.00987699579945911,None,819.7113527511328,819.7113527511328,826.1824950182189,None,826.1824950182189,None,None,0.007603321636452165,None,,NENA_030,001,2021_Feb_27_1034,test7,3.2.4,99.98944900721055,
160,58,Blommorna i trädgården utsöndrade ett illaluktande ämne som den mycket erfarna trädgårdsmästaren i byn ville inte komma nära.,15,,16,,inc,1,no,163,164,,,,,,,,,,,,,0,12,12,12,,,,,,,,,,,,,,,,,,,,,,,,,,,,,,,,,,,,,,,,,,,,,,,,,,,,,,,,,,,,,,,,,,,,,,,,,,,,,,,,,,,,,,,,,,,,,836.6837055917495,None,837.1844039872203,None,837.1844039872203,None,left,0,6.439189559765509,837.1844039872203,None,,,,,,,,,,,,,843.635572592877,None,,,,,,,,,,,,,,,,,,,,,,,,,,,,,,,,,826.1924822819228,None,826.1924822819228,None,826.6925539656831,None,836.1942010885023,836.1942010885023,0.009868977482256014,None,836.1942010885023,836.1942010885023,845.1357007576661,None,845.1357007576661,None,None,0.008208864986954723,None,,NENA_030,001,2021_Feb_27_1034,test7,3.2.4,99.98944900721055,
170,62,Vulkanutbrottet var helt oväntad och många hus förstördes. ,4,,0,,inc,1,no,174,199,,,,,,,,,,,,,0,13,13,13,,,,,,,,,,,,,,,,,,,,,,,,,,,,,,,,,,,,,,,,,,,,,,,,,,,,,,,,,,,,,,,,,,,,,,,,,,,,,,,,,,,,,,,,,,,,,850.6361014811109,None,851.1368239315343,None,851.1368239315343,None,left,0,1.326528347479325,851.1368239315343,None,,,,,,,,,,,,,852.4767569817895,None,,,,,,,,,,,,,,,,,,,,,,,,,,,,,,,,,845.145728433692,None,845.145728433692,None,845.6458430956345,None,850.1466184669553,850.1466184669553,0.009875071403257607,None,850.1466184669553,850.1466184669553,853.9772828551367,None,853.9772828551367,None,None,0.00868515305865003,None,,NENA_030,001,2021_Feb_27_1034,test7,3.2.4,99.98944900721055,
130,33,Kungar bär ofta krona under viktiga ceremonier.,3,,4,,cor,1,no,133,134,,,,,,,,,,,,,0,14,14,14,,,,,,,,,,,,,,,,,,,,,,,,,,,,,,,,,,,,,,,,,,,,,,,,,,,,,,,,,,,,,,,,,,,,,,,,,,,,,,,,,,,,,,,,,,,,,858.9775368433675,None,859.4782358803031,None,859.4782358803031,None,left,1,4.0488434218195835,859.4782358803031,None,,,,,,,,,,,,,863.5386574321301,None,,,,,,,,,,,,,,,,,,,,,,,,,,,,,,,,,853.9872980225864,None,853.9872980225864,None,854.4873876673782,None,858.4880717902433,858.4880717902433,0.009871864075648773,None,858.4880717902433,858.4880717902433,865.0391047259635,None,865.0391047259635,None,None,0.007981465498232865,None,,NENA_030,001,2021_Feb_27_1034,test7,3.2.4,99.98944900721055,
130,46,Idrottare lyfter ofta vikter för att stärka ryggen.,3,,4,,cor,1,no,135,136,,,,,,,,,,,,,0,15,15,15,,,,,,,,,,,,,,,,,,,,,,,,,,,,,,,,,,,,,,,,,,,,,,,,,,,,,,,,,,,,,,,,,,,,,,,,,,,,,,,,,,,,,,,,,,,,,870.53955420078,None,871.0402888390463,None,871.0402888390463,None,left,1,3.8385444379973706,871.0402888390463,None,,,,,,,,,,,,,874.8906628614932,None,,,,,,,,,,,,,,,,,,,,,,,,,,,,,,,,,865.0492331120595,None,865.0492331120595,None,865.5492743262121,None,870.0500721488224,870.0500721488224,0.009863525025139097,None,870.0500721488224,870.0500721488224,876.3911900177717,None,876.3911900177717,None,None,0.007720389075075218,None,,NENA_030,001,2021_Feb_27_1034,test7,3.2.4,99.98944900721055,
150,2,Flickan plockade äpplet men pojken inte ville ha det.  ,6,,7,,inc,1,no,157,158,,,,,,,,,,,,,0,16,16,16,,,,,,,,,,,,,,,,,,,,,,,,,,,,,,,,,,,,,,,,,,,,,,,,,,,,,,,,,,,,,,,,,,,,,,,,,,,,,,,,,,,,,,,,,,,,,882.3915995613652,None,882.8923043714904,None,882.8923043714904,None,left,0,9.050099090370168,882.8923043714904,None,,,,,,,,,,,,,891.9540088541471,None,,,,,,,,,,,,,,,,,,,,,,,,,,,,,,,,,876.4012029400919,None,876.4012029400919,None,876.9012768689809,None,881.9021361119048,881.9021361119048,0.00987667506615253,None,881.9021361119048,881.9021361119048,893.4541386226,None,893.4541386226,None,None,0.0080850621634454,None,,NENA_030,001,2021_Feb_27_1034,test7,3.2.4,99.98944900721055,
180,59,Bankrånet som genomfördes under onsdagen på ett växlingskontor i centrala Norrköping var ganska välplanerat och rånarna lyckades fly. ,14,,0,,cor,1,no,181,199,,,,,,,,,,,,,0,17,17,17,,,,,,,,,,,,,,,,,,,,,,,,,,,,,,,,,,,,,,,,,,,,,,,,,,,,,,,,,,,,,,,,,,,,,,,,,,,,,,,,,,,,,,,,,,,,,903.9553421400115,None,904.4560456672052,None,904.4560456672052,None,left,1,0.5420299365487153,904.4560456672052,None,,,,,,,,,,,,,905.0159227752611,None,,,,,,,,,,,,,,,,,,,,,,,,,,,,,,,,,893.4641621291003,None,893.4641621291003,None,893.9642036639862,None,903.4658661819749,903.4658661819749,0.009876354334664939,None,903.4658661819749,903.4658661819749,906.5163989350384,None,906.5163989350384,None,None,0.007983389894434367,None,,NENA_030,001,2021_Feb_27_1034,test7,3.2.4,99.98944900721055,
180,27,Folket som såg den nya konservativa ministern på gatan den dagen blev glatt överraskat över färgvalet.  ,14,,0,,cor,1,no,181,199,,,,,,,,,,,,,0,18,18,18,,,,,,,,,,,,,,,,,,,,,,,,,,,,,,,,,,,,,,,,,,,,,,,,,,,,,,,,,,,,,,,,,,,,,,,,,,,,,,,,,,,,,,,,,,,,,916.0174212384709,None,916.5181279729914,None,916.5181279729914,None,right,0,5.13567153891745,916.5181279729914,None,,,,,,,,,,,,,921.6690763314973,None,,,,,,,,,,,,,,,,,,,,,,,,,,,,,,,,,906.5263878024061,None,906.5263878024061,None,907.0264790508618,None,915.527876643634,915.527876643634,0.009871222610854602,None,915.527876643634,915.527876643634,923.1692740952848,None,923.1692740952848,None,None,0.0083175933750681,None,,NENA_030,001,2021_Feb_27_1034,test7,3.2.4,99.98944900721055,
180,51,Locket som den omtänksamma föräldern till den lilla pojken hade satt på matlådan var lite löst och maten föll ur. ,16,,0,,cor,1,no,181,199,,,,,,,,,,,,,0,19,19,19,,,,,,,,,,,,,,,,,,,,,,,,,,,,,,,,,,,,,,,,,,,,,,,,,,,,,,,,,,,,,,,,,,,,,,,,,,,,,,,,,,,,,,,,,,,,,934.6706373375846,None,935.1713572221461,None,935.1713572221461,None,left,1,4.185981992141933,935.1713572221461,None,,,,,,,,,,,,,939.3718196545642,None,,,,,,,,,,,,,,,,,,,,,,,,,,,,,,,,,923.1792876590707,None,923.1792876590707,None,923.6793609464949,None,934.1812149419102,934.1812149419102,0.009874109204247361,None,934.1812149419102,934.1812149419102,940.8723496974361,None,940.8723496974361,None,None,0.007846757761399203,None,,NENA_030,001,2021_Feb_27_1034,test7,3.2.4,99.98944900721055,
150,98,Arrangörerna genomförde tävlingen men idrottarna inte ville delta i den.  ,6,,7,,inc,1,no,157,158,,,,,,,,,,,,,0,20,20,20,,,,,,,,,,,,,,,,,,,,,,,,,,,,,,,,,,,,,,,,,,,,,,,,,,,,,,,,,,,,,,,,,,,,,,,,,,,,,,,,,,,,,,,,,,,,,947.3728386223756,None,947.8735591484028,None,947.8735591484028,None,right,1,3.8593971957052418,947.8735591484028,None,,,,,,,,,,,,,951.744009434673,None,,,,,,,,,,,,,,,,,,,,,,,,,,,,,,,,,940.8823629404897,None,940.8823629404897,None,941.382408324168,None,946.8833985864021,946.8833985864021,0.009872826274659019,None,946.8833985864021,946.8833985864021,953.244482707856,None,953.244482707856,None,None,0.007604925300256582,None,,NENA_030,001,2021_Feb_27_1034,test7,3.2.4,99.98944900721055,
150,86,Sjön lagrar vatten men bönderna får inte använda det.  ,6,,7,,cor,1,no,155,156,,,,,,,,,,,,,0,21,21,21,,,,,,,,,,,,,,,,,,,,,,,,,,,,,,,,,,,,,,,,,,,,,,,,,,,,,,,,,,,,,,,,,,,,,,,,,,,,,,,,,,,,,,,,,,,,,959.2449249661868,None,959.7455749310184,None,959.7455749310184,None,left,1,1.06706168106939,959.7455749310184,None,,,,,,,,,,,,,960.8261885311749,None,,,,,,,,,,,,,,,,,,,,,,,,,,,,,,,,,953.254490177721,None,953.254490177721,None,953.7545804639776,None,958.7554387447035,958.7554387447035,0.0098731470079656,None,958.7554387447035,958.7554387447035,962.326063637859,None,962.326063637859,None,None,0.007907055510258942,None,,NENA_030,001,2021_Feb_27_1034,test7,3.2.4,99.98944900721055,
180,2,Explosionen som efter mörkrets inbrott hade skett i parkeringshuset framstod som oerhört kraftfull även i grannkommunen. ,13,,0,,cor,1,no,181,199,,,,,,,,,,,,,0,22,22,22,,,,,,,,,,,,,,,,,,,,,,,,,,,,,,,,,,,,,,,,,,,,,,,,,,,,,,,,,,,,,,,,,,,,,,,,,,,,,,,,,,,,,,,,,,,,,971.8270849790924,None,972.3277987697329,None,972.3277987697329,None,right,0,1.4604704956382193,972.3277987697329,None,,,,,,,,,,,,,973.7985686340726,None,,,,,,,,,,,,,,,,,,,,,,,,,,,,,,,,,962.3360743150506,None,962.3360743150506,None,962.8361581866538,None,971.3375894563605,971.3375894563605,0.009870260411844356,None,971.3375894563605,971.3375894563605,975.2983096744846,None,975.2983096744846,None,None,0.007741557432382251,None,,NENA_030,001,2021_Feb_27_1034,test7,3.2.4,99.98944900721055,
160,31,Bondsonen i granngården sätter en ny sorts potatis som de något äldre bönderna i samhället inte vill använda.,16,,17,,cor,1,no,161,162,,,,,,,,,,,,,0,23,23,23,,,,,,,,,,,,,,,,,,,,,,,,,,,,,,,,,,,,,,,,,,,,,,,,,,,,,,,,,,,,,,,,,,,,,,,,,,,,,,,,,,,,,,,,,,,,,985.7995074187074,None,986.300218643486,None,986.300218643486,None,left,1,0.5678572585502479,986.300218643486,None,,,,,,,,,,,,,986.8800998505058,None,,,,,,,,,,,,,,,,,,,,,,,,,,,,,,,,,975.3083193894781,None,975.3083193894781,None,975.80840903427,None,985.3100282533442,985.3100282533442,0.0098692982146531,None,985.3100282533442,985.3100282533442,988.3805699163621,None,988.3805699163621,None,None,0.007592416724037321,None,,NENA_030,001,2021_Feb_27_1034,test7,3.2.4,99.98944900721055,
130,44,Piloter flyger ofta flygplan i dåligt väder.,3,,4,,cor,1,no,135,136,,,,,,,,,,,,,0,24,24,24,,,,,,,,,,,,,,,,,,,,,,,,,,,,,,,,,,,,,,,,,,,,,,,,,,,,,,,,,,,,,,,,,,,,,,,,,,,,,,,,,,,,,,,,,,,,,993.3808255082567,None,993.8815184512714,None,993.8815184512714,None,left,1,3.2182547586317014,993.8815184512714,None,,,,,,,,,,,,,997.1122025645145,None,,,,,,,,,,,,,,,,,,,,,,,,,,,,,,,,,988.3905924606643,None,988.3905924606643,None,988.890674087138,None,992.8913261367325,992.8913261367325,0.009878278729956946,None,992.8913261367325,992.8913261367325,998.6123509354646,None,998.6123509354646,None,None,0.008064214537625958,None,,NENA_030,001,2021_Feb_27_1034,test7,3.2.4,99.98944900721055,
140,77,Förlag får ofta manuskript av okända författarna.,3,,4,,inc,1,no,137,138,,,,,,,,,,,,,0,25,25,25,,,,,,,,,,,,,,,,,,,,,,,,,,,,,,,,,,,,,,,,,,,,,,,,,,,,,,,,,,,,,,,,,,,,,,,,,,,,,,,,,,,,,,,,,,,,,1003.6125734918905,None,1004.1132301921089,None,1004.1132301921089,None,right,1,4.058218118127115,1004.1132301921089,None,,,,,,,,,,,,,1008.1837009411256,None,,,,,,,,,,,,,,,,,,,,,,,,,,,,,,,,,998.6223574431315,None,998.6223574431315,None,999.1224448427938,None,1003.1231443608294,1003.1231443608294,0.009874750669951027,None,1003.1231443608294,1003.1231443608294,1009.6842592084757,None,1009.6842592084757,None,None,0.0076026801698390045,None,,NENA_030,001,2021_Feb_27_1034,test7,3.2.4,99.98944900721055,
170,90,Solsystemet är väldigt liten jämfört med hela universum. ,4,,0,,cor,1,no,173,199,,,,,,,,,,,,,0,26,26,26,,,,,,,,,,,,,,,,,,,,,,,,,,,,,,,,,,,,,,,,,,,,,,,,,,,,,,,,,,,,,,,,,,,,,,,,,,,,,,,,,,,,,,,,,,,,,1015.1846256135213,None,1015.6853188772684,None,1015.6853188772684,None,right,0,8.58169046022249,1015.6853188772684,None,,,,,,,,,,,,,1024.2771820167736,None,,,,,,,,,,,,,,,,,,,,,,,,,,,,,,,,,1009.6942663576083,None,1009.6942663576083,None,1010.1943274571886,None,1014.6951470896229,1014.6951470896229,0.009875712868051778,None,1014.6951470896229,1014.6951470896229,1025.7770491051397,None,1025.7770491051397,None,None,0.007886849350143166,None,,NENA_030,001,2021_Feb_27_1034,test7,3.2.4,99.98944900721055,
140,58,Keramiker formar gärna krukor och färgrik vaser.,3,,4,,inc,1,no,135,136,,,,,,,,,,,,,0,27,27,27,,,,,,,,,,,,,,,,,,,,,,,,,,,,,,,,,,,,,,,,,,,,,,,,,,,,,,,,,,,,,,,,,,,,,,,,,,,,,,,,,,,,,,,,,,,,,1030.7773172056095,None,1031.2780277889233,None,1031.2780277889233,None,left,0,9.220614389159891,1031.2780277889233,None,,,,,,,,,,,,,1040.5097177199368,None,,,,,,,,,,,,,,,,,,,,,,,,,,,,,,,,,1025.7870825543532,None,1025.7870825543532,None,1026.2871523137173,None,1030.2878354743843,1030.2878354743843,0.009876675067062024,None,1030.2878354743843,1030.2878354743843,1042.0097778893924,None,1042.0097778893924,None,None,0.008114248838865024,None,,NENA_030,001,2021_Feb_27_1034,test7,3.2.4,99.98944900721055,
170,85,Mönstret var mycket smakfullt i sammanhanget.  ,4,,0,,cor,1,no,173,199,,,,,,,,,,,,,0,28,28,28,,,,,,,,,,,,,,,,,,,,,,,,,,,,,,,,,,,,,,,,,,,,,,,,,,,,,,,,,,,,,,,,,,,,,,,,,,,,,,,,,,,,,,,,,,,,,1046.5100416599707,None,1047.0107589786712,None,1047.0107589786712,None,left,1,7.799555849346689,1047.0107589786712,None,,,,,,,,,,,,,1054.822007459601,None,,,,,,,,,,,,,,,,,,,,,,,,,,,,,,,,,1042.0198591277795,None,1042.0198591277795,None,1042.5199474896408,None,1046.0205740409847,1046.0205740409847,0.009871222609945107,None,1046.0205740409847,1046.0205740409847,1056.3223043297949,None,1056.3223043297949,None,None,0.008194111283955863,None,,NENA_030,001,2021_Feb_27_1034,test7,3.2.4,99.98944900721055,
130,25,Korrekturläsare letar ofta fel i tidigare publicerade artiklar.,3,,4,,cor,1,no,133,134,,,,,,,,,,,,,0,29,29,29,,,,,,,,,,,,,,,,,,,,,,,,,,,,,,,,,,,,,,,,,,,,,,,,,,,,,,,,,,,,,,,,,,,,,,,,,,,,,,,,,,,,,,,,,,,,,1061.8227111471615,None,1062.3233886950056,None,1062.3233886950056,None,left,1,4.414558891496199,1062.3233886950056,None,,,,,,,,,,,,,1066.7540127670854,None,,,,,,,,,,,,,,,,,,,,,,,,,,,,,,,,,1056.3323012154806,None,1056.3323012154806,None,1056.8324171603545,None,1061.3332364720554,1061.3332364720554,0.009875712868051778,None,1061.3332364720554,1061.3332364720554,1068.2544032912301,None,1068.2544032912301,None,None,0.007928223869384965,None,,NENA_030,001,2021_Feb_27_1034,test7,3.2.4,99.98944900721055,
170,76,Gitarren är redan stämt och mikrofonerna är på plats. ,4,,0,,inc,1,no,172,199,,,,,,,,,,,,,0,30,30,30,,,,,,,,,,,,,,,,,,,,,,,,,,,,,,,,,,,,,,,,,,,,,,,,,,,,,,,,,,,,,,,,,,,,,,,,,,,,,,,,,,,,,,,,,,,,,1074.2548041750415,None,1074.7555510011507,None,1074.7555510011507,None,right,1,5.358141366789823,1074.7555510011507,None,,,,,,,,,,,,,1080.126183944698,None,,,,,,,,,,,,,,,,,,,,,,,,,,,,,,,,,1068.2644303257903,None,1068.2644303257903,None,1068.7644878973115,None,1073.7653795342376,1073.7653795342376,0.009851978647930082,None,1073.7653795342376,1073.7653795342376,1081.6267123839061,None,1081.6267123839061,None,None,0.007831041858480603,None,,NENA_030,001,2021_Feb_27_1034,test7,3.2.4,99.98944900721055,
140,16,Pirater hittar ibland skatter nedgrävda i market.,3,,4,,inc,1,no,131,132,,,,,,,,,,,,,0,31,31,31,,,,,,,,,,,,,,,,,,,,,,,,,,,,,,,,,,,,,,,,,,,,,,,,,,,,,,,,,,,,,,,,,,,,,,,,,,,,,,,,,,,,,,,,,,,,,1086.6269990868732,None,1087.1277019726022,None,1087.1277019726022,None,right,1,1.7699284862283093,1087.1277019726022,None,,,,,,,,,,,,,1088.9082245808904,None,,,,,,,,,,,,,,,,,,,,,,,,,,,,,,,,,1081.6367333245453,None,1081.6367333245453,None,1082.1368284217924,None,1086.1375064507365,1086.1375064507365,0.009874429936644447,None,1086.1375064507365,1086.1375064507365,1090.408246262421,None,1090.408246262421,None,None,0.008081534102529986,None,,NENA_030,001,2021_Feb_27_1034,test7,3.2.4,99.98944900721055,
160,35,De lediga stadsborna utnyttjar alla de svårfunna badplatser som de badsugna turisterna från södra Europa kan inte hitta.,16,,17,,inc,1,no,163,164,,,,,,,,,,,,,0,32,32,32,,,,,,,,,,,,,,,,,,,,,,,,,,,,,,,,,,,,,,,,,,,,,,,,,,,,,,,,,,,,,,,,,,,,,,,,,,,,,,,,,,,,,,,,,,,,,1100.9094654957353,None,1101.4101780034453,None,1101.4101780034453,None,right,1,1.270953387595,1101.4101780034453,None,,,,,,,,,,,,,1102.6906776793448,None,,,,,,,,,,,,,,,,,,,,,,,,,,,,,,,,,1090.4182623920688,None,1090.4182623920688,None,1090.9183481880682,None,1100.4199911413625,1100.4199911413625,0.00987378847275977,None,1100.4199911413625,1100.4199911413625,1104.190637780196,None,1104.190637780196,None,None,0.008032141265175596,None,,NENA_030,001,2021_Feb_27_1034,test7,3.2.4,99.98944900721055,
170,16,Båten är kraftigt skadad och måste bogseras.  ,4,,0,,cor,1,no,171,199,,,,,,,,,,,,,0,33,33,33,,,,,,,,,,,,,,,,,,,,,,,,,,,,,,,,,,,,,,,,,,,,,,,,,,,,,,,,,,,,,,,,,,,,,,,,,,,,,,,,,,,,,,,,,,,,,1109.1908686756715,None,1109.6915908053625,None,1109.6915908053625,None,left,1,5.229222534295332,1109.6915908053625,None,,,,,,,,,,,,,1114.932225650855,None,,,,,,,,,,,,,,,,,,,,,,,,,,,,,,,,,1104.2006516647143,None,1104.2006516647143,None,1104.7007326497232,None,1108.7014308848275,1108.7014308848275,0.00988148605756578,None,1108.7014308848275,1108.7014308848275,1116.4327544107964,None,1116.4327544107964,None,None,0.007760480662909686,None,,NENA_030,001,2021_Feb_27_1034,test7,3.2.4,99.98944900721055,
170,53,Programmet är vanligtvis tråkigt på lördagskvällen.  ,4,,0,,cor,1,no,173,199,,,,,,,,,,,,,0,34,34,34,,,,,,,,,,,,,,,,,,,,,,,,,,,,,,,,,,,,,,,,,,,,,,,,,,,,,,,,,,,,,,,,,,,,,,,,,,,,,,,,,,,,,,,,,,,,,1120.932924527424,None,1121.4336386387968,None,1121.4336386387968,None,left,1,11.078740841878243,1121.4336386387968,None,,,,,,,,,,,,,1132.5255439546536,None,,,,,,,,,,,,,,,,,,,,,,,,,,,,,,,,,1116.4427785587613,None,1116.4427785587613,None,1116.942844469333,None,1120.4434597950321,1120.4434597950321,0.009875712868051778,None,1120.4434597950321,1120.4434597950321,1134.0257558306794,None,1134.0257558306794,None,None,0.008223939424169657,None,,NENA_030,001,2021_Feb_27_1034,test7,3.2.4,99.98944900721055,
180,26,Bänken som det äldre paret älskar att sitta på efter sina dagliga promenader är alldeles nymålad och kan inte användas. ,16,,0,,cor,1,no,181,199,,,,,,,,,,,,,0,35,35,35,,,,,,,,,,,,,,,,,,,,,,,,,,,,,,,,,,,,,,,,,,,,,,,,,,,,,,,,,,,,,,,,,,,,,,,,,,,,,,,,,,,,,,,,,,,,,1145.5271966902947,None,1146.0278973308941,None,1146.0278973308941,None,left,1,0.7000693744839737,1146.0278973308941,None,,,,,,,,,,,,,1146.7380399575222,None,,,,,,,,,,,,,,,,,,,,,,,,,,,,,,,,,1134.035770035931,None,1134.035770035931,None,1134.5358856600724,None,1145.0377419006163,1145.0377419006163,0.009871543343251687,None,1145.0377419006163,1145.0377419006163,1148.2381989126516,None,1148.2381989126516,None,None,0.008214317443162145,None,,NENA_030,001,2021_Feb_27_1034,test7,3.2.4,99.98944900721055,
160,11,Borgmästaren i byn sa väldigt många dumma saker som de flesta av invånarna i det lilla samhället ville inte höra.,18,,19,,inc,1,no,163,164,,,,,,,,,,,,,0,36,36,36,,,,,,,,,,,,,,,,,,,,,,,,,,,,,,,,,,,,,,,,,,,,,,,,,,,,,,,,,,,,,,,,,,,,,,,,,,,,,,,,,,,,,,,,,,,,,1159.7396577332984,None,1160.240350676313,None,1160.240350676313,None,left,0,2.0872242219902546,1160.240350676313,None,,,,,,,,,,,,,1162.3404481469825,None,,,,,,,,,,,,,,,,,,,,,,,,,,,,,,,,,1148.2482387765194,None,1148.2482387765194,None,1148.7483524762647,None,1159.2501833789247,1159.2501833789247,0.00987346773945319,None,1159.2501833789247,1159.2501833789247,1163.8409756239935,None,1163.8409756239935,None,None,0.008648910263218568,None,,NENA_030,001,2021_Feb_27_1034,test7,3.2.4,99.98944900721055,
170,99,Fällan var redan färdig och spindeln väntade på bytet. ,4,,0,,cor,1,no,171,199,,,,,,,,,,,,,0,37,37,37,,,,,,,,,,,,,,,,,,,,,,,,,,,,,,,,,,,,,,,,,,,,,,,,,,,,,,,,,,,,,,,,,,,,,,,,,,,,,,,,,,,,,,,,,,,,,1169.8413909407764,None,1170.3421509169266,None,1170.3421509169266,None,left,1,3.3531308804331275,1170.3421509169266,None,,,,,,,,,,,,,1173.7124762778067,None,,,,,,,,,,,,,,,,,,,,,,,,,,,,,,,,,1163.8509821316602,None,1163.8509821316602,None,1164.3510724179168,None,1169.3519358303656,1169.3519358303656,0.009873788471850276,None,1169.3519358303656,1169.3519358303656,1175.2129283826316,None,1175.2129283826316,None,None,0.008100778066364,None,,NENA_030,001,2021_Feb_27_1034,test7,3.2.4,99.98944900721055,
170,19,Väskan är för färgglad för äldres smak.  ,4,,0,,cor,1,no,171,199,,,,,,,,,,,,,0,38,38,38,,,,,,,,,,,,,,,,,,,,,,,,,,,,,,,,,,,,,,,,,,,,,,,,,,,,,,,,,,,,,,,,,,,,,,,,,,,,,,,,,,,,,,,,,,,,,1180.2132086709444,None,1180.7139352908926,None,1180.7139352908926,None,left,1,5.533093361121246,1180.7139352908926,None,,,,,,,,,,,,,1186.2647459267746,None,,,,,,,,,,,,,,,,,,,,,,,,,,,,,,,,,1175.2229692086976,None,1175.2229692086976,None,1175.7230046496616,None,1179.7237365617002,1179.7237365617002,0.009871543344161182,None,1179.7237365617002,1179.7237365617002,1187.765133564325,None,1187.765133564325,None,None,0.007916036026472284,None,,NENA_030,001,2021_Feb_27_1034,test7,3.2.4,99.98944900721055,
180,34,Pannkakan som steks på den första smeten då stekpannan har extra mycket smör blir ofta ljus och får mer fett. ,16,,0,,cor,1,no,181,199,,,,,,,,,,,,,0,39,39,39,,,,,,,,,,,,,,,,,,,,,,,,,,,,,,,,,,,,,,,,,,,,,,,,,,,,,,,,,,,,,,,,,,,,,,,,,,,,,,,,,,,,,,,,,,,,,1199.2665061078733,None,1199.7672089936013,None,1199.7672089936013,None,left,1,3.5113803982922036,1199.7672089936013,None,,,,,,,,,,,,,1203.2877851193489,None,,,,,,,,,,,,,,,,,,,,,,,,,,,,,,,,,1187.775135902466,None,1187.775135902466,None,1188.2751623629147,None,1198.777020848588,1198.777020848588,0.009876354333755444,None,1198.777020848588,1198.777020848588,1204.7880470296777,None,1204.7880470296777,None,None,0.008308612859764253,None,,NENA_030,001,2021_Feb_27_1034,test7,3.2.4,99.98944900721055,
150,1,Pojken älskade hunden men katten ville inte vara nära den. ,6,,7,,cor,1,no,155,156,,,,,,,,,,,,,0,40,40,40,,,,,,,,,,,,,,,,,,,,,,,,,,,,,,,,,,,,,,,,,,,,,,,,,,,,,,,,,,,,,,,,,,,,,,,,,,,,,,,,,,,,,,,,,,,,,1211.2887630333744,None,1211.7892484623271,None,1211.7892484623271,None,left,1,10.504829112010157,1211.7892484623271,None,,,,,,,,,,,,,1222.3108823645434,None,,,,,,,,,,,,,,,,,,,,,,,,,,,,,,,,,1204.7980779130303,None,1204.7980779130303,None,1205.2981592187716,None,1210.7991026540303,1210.7991026540303,0.00987667506615253,None,1210.7991026540303,1210.7991026540303,1223.8113469779437,None,1223.8113469779437,None,None,0.007983710626831453,None,,NENA_030,001,2021_Feb_27_1034,test7,3.2.4,99.98944900721055,
170,12,Lägenheten är mycket mysigt för sin storlek.  ,4,,0,,inc,1,no,172,199,,,,,,,,,,,,,0,41,41,41,,,,,,,,,,,,,,,,,,,,,,,,,,,,,,,,,,,,,,,,,,,,,,,,,,,,,,,,,,,,,,,,,,,,,,,,,,,,,,,,,,,,,,,,,,,,,1228.8115977588477,None,1229.312320209271,None,1229.312320209271,None,right,1,0.7815444626940007,1229.312320209271,None,,,,,,,,,,,,,1230.1122676732539,None,,,,,,,,,,,,,,,,,,,,,,,,,,,,,,,,,1223.8213502782837,None,1223.8213502782837,None,1224.321463978028,None,1228.3221606094685,1228.3221606094685,0.009875071404167102,None,1228.3221606094685,1228.3221606094685,1231.6127393427732,None,1231.6127393427732,None,None,0.00814151111899264,None,,NENA_030,001,2021_Feb_27_1034,test7,3.2.4,99.98944900721055,
160,28,Det lilla rådjuret söker en lugn plats som de högljudda arbetarna från den kommunala parkförvaltningen inte kan hitta.,16,,17,,cor,1,no,161,162,,,,,,,,,,,,,0,42,42,42,,,,,,,,,,,,,,,,,,,,,,,,,,,,,,,,,,,,,,,,,,,,,,,,,,,,,,,,,,,,,,,,,,,,,,,,,,,,,,,,,,,,,,,,,,,,,1242.1139277857474,None,1242.6146422178535,None,1242.6146422178535,None,left,1,4.574810422915107,1242.6146422178535,None,,,,,,,,,,,,,1247.2051380738267,None,,,,,,,,,,,,,,,,,,,,,,,,,,,,,,,,,1231.6227381528552,None,1231.6227381528552,None,1232.1227861023945,None,1241.6244588838308,1241.6244588838308,0.009873467738543695,None,1241.6244588838308,1241.6244588838308,1248.7056713240263,None,1248.7056713240263,None,None,0.008720433655980742,None,,NENA_030,001,2021_Feb_27_1034,test7,3.2.4,99.98944900721055,
180,10,Boken som de rekommenderade alla blivande studenter på programmet att läsa var förvånansvärt rolig efter den sega inledningen. ,14,,0,,cor,1,yes,181,199,,,,,,,,,,,,,0,43,43,43,,,,,,,,,,,,,,,,,,,,,,,,,,,,,,,,,,,,,,,,,,,,,,,,,,,,,,,,,,,,,,,,,,,,,,,,,,,,,,,,,,,,,,,,,,,,,1259.2068867085472,None,1259.7075960089305,None,1259.7075960089305,None,left,1,2.2734576685752472,1259.7075960089305,None,,,,,,,,,,,,,1261.997671159811,None,,,,,,,,,,,,,,,,,,,,,,,,,,,,,,,,,1248.7156842463464,None,1248.7156842463464,None,1249.215771966742,None,1258.7174101090459,1258.7174101090459,0.009875071403257607,None,1258.7174101090459,1258.7174101090459,1263.4990681111185,None,1263.4990681111185,None,space,0.007619679005074431,None,79.08024860633668,NENA_030,001,2021_Feb_27_1034,test7,3.2.4,99.98944900721055,
180,56,Spacklet som målaren hade täckt den stora väggen i skolans matsal med var nu torrt och han började därför måla.,15,,0,,cor,1,no,181,199,,,,,,,,,,,,,0,44,44,44,,,,,,,,,,,,,,,,,,,,,,,,,,,,,,,,,,,,,,,,,,,,,,,,,,,,,,,,,,,,,,,,,,,,,,,,,,,,,,,,,,,,,,,,,,,,,1354.0733239871815,None,1354.574032646099,None,1354.574032646099,None,left,1,2.6446230284163903,1354.574032646099,None,,,,,,,,,,,,,1357.234731118545,None,,,,,,,,,,,,,,,,,,,,,,,,,,,,,,,,,1342.5826930706653,None,1342.5826930706653,None,1343.0819965995915,None,1353.5838461047488,1353.5838461047488,0.009875712868051778,None,1353.5838461047488,1353.5838461047488,1358.7347438195602,None,1358.7347438195602,None,None,0.008171339261025423,None,,NENA_030,001,2021_Feb_27_1034,test7,3.2.4,99.98944900721055,
160,25,Filosofen med de tjocka glasögonen drog en fullständigt absurd slutsats som de två psykologerna bland deltagarna i seminariet inte kunde förstå.,19,,20,,cor,1,no,161,162,,,,,,,,,,,,,0,45,45,45,,,,,,,,,,,,,,,,,,,,,,,,,,,,,,,,,,,,,,,,,,,,,,,,,,,,,,,,,,,,,,,,,,,,,,,,,,,,,,,,,,,,,,,,,,,,,1370.736211781089,None,1371.2369467400886,None,1371.2369467400886,None,left,1,0.5333672668539293,1371.2369467400886,None,,,,,,,,,,,,,1371.7867605387155,None,,,,,,,,,,,,,,,,,,,,,,,,,,,,,,,,,1358.7447500064945,None,1358.7447500064945,None,1359.2448046914215,None,1370.2467297291314,1370.2467297291314,0.009861600628937595,None,1370.2467297291314,1370.2467297291314,1373.2872405472854,None,1373.2872405472854,None,None,0.008166528270521667,None,,NENA_030,001,2021_Feb_27_1034,test7,3.2.4,99.98944900721055,
170,113,Teet var väldigt het och brände tungan.  ,4,,0,,inc,1,no,174,199,,,,,,,,,,,,,0,46,46,46,,,,,,,,,,,,,,,,,,,,,,,,,,,,,,,,,,,,,,,,,,,,,,,,,,,,,,,,,,,,,,,,,,,,,,,,,,,,,,,,,,,,,,,,,,,,,1378.2877261045305,None,1378.788206081028,None,1378.788206081028,None,left,0,2.0539857293188106,1378.788206081028,None,,,,,,,,,,,,,1380.8582903471315,None,,,,,,,,,,,,,,,,,,,,,,,,,,,,,,,,,1373.2972367915054,None,1373.2972367915054,None,1373.797306871602,None,1377.7980564239388,1377.7980564239388,0.00987346773945319,None,1377.7980564239388,1377.7980564239388,1382.3588245595292,None,1382.3588245595292,None,None,0.008655645649014332,None,,NENA_030,001,2021_Feb_27_1034,test7,3.2.4,99.98944900721055,
180,17,Skjortan som reseledaren inför denna speciella dag hade strukit kvällen innan var otroligt skrynkligt på morgonen.  ,14,,0,,inc,1,no,182,199,,,,,,,,,,,,,0,47,47,47,,,,,,,,,,,,,,,,,,,,,,,,,,,,,,,,,,,,,,,,,,,,,,,,,,,,,,,,,,,,,,,,,,,,,,,,,,,,,,,,,,,,,,,,,,,,,1391.8598709179141,None,1392.3605638609288,None,1392.3605638609288,None,right,1,0.809219205089903,1392.3605638609288,None,,,,,,,,,,,,,1393.180712033025,None,,,,,,,,,,,,,,,,,,,,,,,,,,,,,,,,,1382.3688435757713,None,1382.3688435757713,None,1382.868931296167,None,1391.3704090721167,1391.3704090721167,0.009870260411844356,None,1391.3704090721167,1391.3704090721167,1394.680913645605,None,1394.680913645605,None,None,0.008209506453567883,None,,NENA_030,001,2021_Feb_27_1034,test7,3.2.4,99.98944900721055,
170,88,Kajaken var för smal för det öppna havet. ,4,,0,,cor,1,no,171,199,,,,,,,,,,,,,0,48,48,48,,,,,,,,,,,,,,,,,,,,,,,,,,,,,,,,,,,,,,,,,,,,,,,,,,,,,,,,,,,,,,,,,,,,,,,,,,,,,,,,,,,,,,,,,,,,,1400.181317255644,None,1400.6820259145607,None,1400.6820259145607,None,left,1,2.135770324591249,1400.6820259145607,None,,,,,,,,,,,,,1402.8321695547038,None,,,,,,,,,,,,,,,,,,,,,,,,,,,,,,,,,1394.690912455686,None,1394.690912455686,None,1395.1910547006419,None,1399.6918457878655,1399.6918457878655,0.009876033600448864,None,1399.6918457878655,1399.6918457878655,1404.3326405827584,None,1404.3326405827584,None,None,0.007602038705954328,None,,NENA_030,001,2021_Feb_27_1034,test7,3.2.4,99.98944900721055,
130,52,Skådespelare spelar ofta roller skrivna för dem.,3,,4,,cor,1,no,135,136,,,,,,,,,,,,,0,49,49,49,,,,,,,,,,,,,,,,,,,,,,,,,,,,,,,,,,,,,,,,,,,,,,,,,,,,,,,,,,,,,,,,,,,,,,,,,,,,,,,,,,,,,,,,,,,,,1409.3328862319386,None,1409.8335942493904,None,1409.8335942493904,None,left,1,0.5357708377632662,1409.8335942493904,None,,,,,,,,,,,,,1410.383440121288,None,,,,,,,,,,,,,,,,,,,,,,,,,,,,,,,,,1404.3426413172356,None,1404.3426413172356,None,1404.8427293583645,None,1408.8433756347695,1408.8433756347695,0.009875392135654693,None,1408.8433756347695,1408.8433756347695,1411.8839566933866,None,1411.8839566933866,None,None,0.007682542615839338,None,,NENA_030,001,2021_Feb_27_1034,test7,3.2.4,99.98944900721055,
170,75,Mattan är redan lagd och möblerna är klara. ,4,,0,,cor,1,no,171,199,,,,,,,,,,,,,0,50,50,50,,,,,,,,,,,,,,,,,,,,,,,,,,,,,,,,,,,,,,,,,,,,,,,,,,,,,,,,,,,,,,,,,,,,,,,,,,,,,,,,,,,,,,,,,,,,,1417.3842939117549,None,1417.8849874962352,None,1417.8849874962352,None,left,1,1.8201879429516339,1417.8849874962352,None,,,,,,,,,,,,,1419.715541199559,None,,,,,,,,,,,,,,,,,,,,,,,,,,,,,,,,,1411.893952296141,None,1411.893952296141,None,1412.3940374506747,None,1416.8947964646268,1416.8947964646268,0.009876033601358358,None,1416.8947964646268,1416.8947964646268,1421.2155699372097,None,1421.2155699372097,None,None,0.007992691143044794,None,,NENA_030,001,2021_Feb_27_1034,test7,3.2.4,99.98944900721055,
170,65,Taket var helt förstörd och byggnaden stängdes.  ,4,,0,,inc,1,no,174,199,,,,,,,,,,,,,0,51,51,51,,,,,,,,,,,,,,,,,,,,,,,,,,,,,,,,,,,,,,,,,,,,,,,,,,,,,,,,,,,,,,,,,,,,,,,,,,,,,,,,,,,,,,,,,,,,,1426.215791210705,None,1426.7165348294866,None,1426.7165348294866,None,right,1,0.4443777320411755,1426.7165348294866,None,,,,,,,,,,,,,1427.1767930000724,None,,,,,,,,,,,,,,,,,,,,,,,,,,,,,,,,,1421.225576124144,None,1421.225576124144,None,1421.7256673725988,None,1425.7263444393448,1425.7263444393448,0.009874109205156856,None,1425.7263444393448,1425.7263444393448,1428.676869847629,None,1428.676869847629,None,None,0.008075119448221812,None,,NENA_030,001,2021_Feb_27_1034,test7,3.2.4,99.98944900721055,
170,17,Rödvinet är väldigt syrlig men passar bra med huvudrätten. ,4,,0,,inc,1,no,174,199,,,,,,,,,,,,,0,52,52,52,,,,,,,,,,,,,,,,,,,,,,,,,,,,,,,,,,,,,,,,,,,,,,,,,,,,,,,,,,,,,,,,,,,,,,,,,,,,,,,,,,,,,,,,,,,,,1434.6772803534213,None,1435.1779883708732,None,1435.1779883708732,None,right,1,1.886724905311894,1435.1779883708732,None,,,,,,,,,,,,,1437.0781112435734,None,,,,,,,,,,,,,,,,,,,,,,,,,,,,,,,,,1428.686859997928,None,1428.686859997928,None,1429.1869592647008,None,1434.1878252430106,1434.1878252430106,0.009866732352747931,None,1434.1878252430106,1434.1878252430106,1438.5785764984385,None,1438.5785764984385,None,None,0.008637684617497143,None,,NENA_030,001,2021_Feb_27_1034,test7,3.2.4,99.98944900721055,
160,4,Det nya lagförslaget innebär stora praktiska förändringar som de mer erfarna medlemmarna i partiet inte kan ställa sig bakom.,15,,16,,cor,1,no,161,162,,,,,,,,,,,,,0,53,53,53,,,,,,,,,,,,,,,,,,,,,,,,,,,,,,,,,,,,,,,,,,,,,,,,,,,,,,,,,,,,,,,,,,,,,,,,,,,,,,,,,,,,,,,,,,,,,1449.5798773582273,None,1450.0805840927478,None,1450.0805840927478,None,right,0,4.879688350442848,1450.0805840927478,None,,,,,,,,,,,,,1454.9713938498217,None,,,,,,,,,,,,,,,,,,,,,,,,,,,,,,,,,1438.5885884585614,None,1438.5885884585614,None,1439.088658538658,None,1449.0903965891994,1449.0903965891994,0.009876675067971519,None,1449.0903965891994,1449.0903965891994,1456.4716522320905,None,1456.4716522320905,None,None,0.007989163083038875,None,,NENA_030,001,2021_Feb_27_1034,test7,3.2.4,99.98944900721055,
180,33,Brandbilen som brandmännen i Storstockholms brandförsvar använder när de rycker ut är mestadels rött med undantag för dess ränder.,14,,0,,inc,1,no,182,199,,,,,,,,,,,,,0,54,54,54,,,,,,,,,,,,,,,,,,,,,,,,,,,,,,,,,,,,,,,,,,,,,,,,,,,,,,,,,,,,,,,,,,,,,,,,,,,,,,,,,,,,,,,,,,,,,1467.4629718900233,None,1467.9636908123866,None,1467.9636908123866,None,right,1,1.3962960504013608,1467.9636908123866,None,,,,,,,,,,,,,1469.3741093653625,None,,,,,,,,,,,,,,,,,,,,,,,,,,,,,,,,,1456.4816860020373,None,1456.4816860020373,None,1456.9817721187692,None,1466.9734888758667,1466.9734888758667,0.009876033601358358,None,1466.9734888758667,1466.9734888758667,1470.874166968957,None,1470.874166968957,None,None,0.00806902552722022,None,,NENA_030,001,2021_Feb_27_1034,test7,3.2.4,99.98944900721055,
130,78,Poliser kontrollerar ofta bilar som kör för fort.,3,,4,,cor,1,no,137,138,,,,,,,,,,,,,0,55,55,55,,,,,,,,,,,,,,,,,,,,,,,,,,,,,,,,,,,,,,,,,,,,,,,,,,,,,,,,,,,,,,,,,,,,,,,,,,,,,,,,,,,,,,,,,,,,,1476.3745176580996,None,1476.8752231096896,None,1476.8752231096896,None,left,1,0.5885069924543131,1476.8752231096896,None,,,,,,,,,,,,,1477.4753864909308,None,,,,,,,,,,,,,,,,,,,,,,,,,,,,,,,,,1470.8841734766238,None,1470.8841734766238,None,1471.3842724226633,None,1475.885037209805,1475.885037209805,0.009873147007056104,None,1475.885037209805,1475.885037209805,1478.9755329374848,None,1478.9755329374848,None,None,0.008178074646821187,None,,NENA_030,001,2021_Feb_27_1034,test7,3.2.4,99.98944900721055,
180,21,Krukan som han hade använt för att sätta den nyligen inköpta rosen i var nu trasig och blomman låg på golvet.,16,,0,,cor,1,no,181,199,,,,,,,,,,,,,0,56,56,56,,,,,,,,,,,,,,,,,,,,,,,,,,,,,,,,,,,,,,,,,,,,,,,,,,,,,,,,,,,,,,,,,,,,,,,,,,,,,,,,,,,,,,,,,,,,,1490.9770438771966,None,1491.4777464421923,None,1491.4777464421923,None,left,1,1.457601541569602,1491.4777464421923,None,,,,,,,,,,,,,1492.9479091595167,None,,,,,,,,,,,,,,,,,,,,,,,,,,,,,,,,,1478.9855699147583,None,1478.9855699147583,None,1479.485660201016,None,1490.4875727301505,1490.4875727301505,0.009876995800368604,None,1490.4875727301505,1490.4875727301505,1494.4482506115564,None,1494.4482506115564,None,None,0.008411247325057047,None,,NENA_030,001,2021_Feb_27_1034,test7,3.2.4,99.98944900721055,
130,14,Skräddare syr ofta kläder åt rika människor.,3,,4,,cor,1,no,131,132,,,,,,,,,,,,,0,57,57,57,,,,,,,,,,,,,,,,,,,,,,,,,,,,,,,,,,,,,,,,,,,,,,,,,,,,,,,,,,,,,,,,,,,,,,,,,,,,,,,,,,,,,,,,,,,,,1499.448519353492,None,1499.9491805439684,None,1499.9491805439684,None,left,1,2.4979330380665488,1499.9491805439684,None,,,,,,,,,,,,,1502.4593909093446,None,,,,,,,,,,,,,,,,,,,,,,,,,,,,,,,,,1494.458249100906,None,1494.458249100906,None,1494.958368573839,None,1498.9590174161067,1498.9590174161067,0.009875071404167102,None,1498.9590174161067,1498.9590174161067,1503.959895935065,None,1503.959895935065,None,None,0.007753103809591266,None,,NENA_030,001,2021_Feb_27_1034,test7,3.2.4,99.98944900721055,
160,51,Dagens utvecklade teknologi medför utmaningar för skolväsendet som vår nuvarande kunskap om påverkan på koncentration kan inte hantera.,16,,17,,inc,1,no,163,164,,,,,,,,,,,,,0,58,58,58,,,,,,,,,,,,,,,,,,,,,,,,,,,,,,,,,,,,,,,,,,,,,,,,,,,,,,,,,,,,,,,,,,,,,,,,,,,,,,,,,,,,,,,,,,,,,1514.4611010561403,None,1514.9618119601864,None,1514.9618119601864,None,right,1,0.46091214457646856,1514.9618119601864,None,,,,,,,,,,,,,1515.441577414772,None,,,,,,,,,,,,,,,,,,,,,,,,,,,,,,,,,1503.9698989146718,None,1503.9698989146718,None,1504.469989842395,None,1513.9716132309932,1513.9716132309932,0.009878278729956946,None,1513.9716132309932,1513.9716132309932,1516.9421507565603,None,1516.9421507565603,None,None,0.007587926466840145,None,,NENA_030,001,2021_Feb_27_1034,test7,3.2.4,99.98944900721055,
150,60,Hästarna hade stamtavlor som ägarna inte har vetat om.  ,6,,7,,cor,1,no,151,152,,,,,,,,,,,,,0,59,59,59,,,,,,,,,,,,,,,,,,,,,,,,,,,,,,,,,,,,,,,,,,,,,,,,,,,,,,,,,,,,,,,,,,,,,,,,,,,,,,,,,,,,,,,,,,,,,1522.942587883167,None,1523.4432744115275,None,1523.4432744115275,None,left,1,3.523165721627265,1523.4432744115275,None,,,,,,,,,,,,,1526.9836512917027,None,,,,,,,,,,,,,,,,,,,,,,,,,,,,,,,,,1516.95215533983,None,1516.95215533983,None,1517.4522366455712,None,1522.4530984543562,1522.4530984543562,0.009874750670860521,None,1522.4530984543562,1522.4530984543562,1528.4841001892,None,1528.4841001892,None,None,0.008187055163944024,None,,NENA_030,001,2021_Feb_27_1034,test7,3.2.4,99.98944900721055,
170,116,Pastan blir något klibbigt vid överkokning.  ,4,,0,,inc,1,no,172,199,,,,,,,,,,,,,0,60,60,60,,,,,,,,,,,,,,,,,,,,,,,,,,,,,,,,,,,,,,,,,,,,,,,,,,,,,,,,,,,,,,,,,,,,,,,,,,,,,,,,,,,,,,,,,,,,,1532.9843248303878,None,1533.485029640513,None,1533.485029640513,None,left,0,4.633111290079796,1533.485029640513,None,,,,,,,,,,,,,1538.1355114932958,None,,,,,,,,,,,,,,,,,,,,,,,,,,,,,,,,,1528.4941124700554,None,1528.4941124700554,None,1528.994229056394,None,1532.4948488723512,1532.4948488723512,0.009872505542261933,None,1532.4948488723512,1532.4948488723512,1539.636083872886,None,1539.636083872886,None,None,0.007816288154572248,None,,NENA_030,001,2021_Feb_27_1034,test7,3.2.4,99.98944900721055,
180,37,Tavlan som för en liten stund sedan auktionerades ut till en beslutsam konstkännare var otroligt vacker men kostade en förmögenhet. ,16,,0,,cor,1,no,181,199,,,,,,,,,,,,,0,61,61,61,,,,,,,,,,,,,,,,,,,,,,,,,,,,,,,,,,,,,,,,,,,,,,,,,,,,,,,,,,,,,,,,,,,,,,,,,,,,,,,,,,,,,,,,,,,,,1551.1374689250097,None,1551.638165075351,None,1551.638165075351,None,left,1,0.04766825717979373,1551.638165075351,None,,,,,,,,,,,,,1551.6979076360358,None,,,,,,,,,,,,,,,,,,,,,,,,,,,,,,,,,1539.6460990403357,None,1539.6460990403357,None,1540.1461771387494,None,1550.647991042577,1550.647991042577,0.009876354333755444,None,1550.647991042577,1550.647991042577,1553.198441527701,None,1553.198441527701,None,None,0.00774476476090058,None,,NENA_030,001,2021_Feb_27_1034,test7,3.2.4,99.98944900721055,
170,30,Spelet är särskilt svår för nybörjare.  ,4,,0,,inc,1,no,174,199,,,,,,,,,,,,,0,62,62,62,,,,,,,,,,,,,,,,,,,,,,,,,,,,,,,,,,,,,,,,,,,,,,,,,,,,,,,,,,,,,,,,,,,,,,,,,,,,,,,,,,,,,,,,,,,,,1557.6985924003666,None,1558.1992866263117,None,1558.1992866263117,None,right,1,0.6384104358721743,1558.1992866263117,None,,,,,,,,,,,,,1558.8491571625545,None,,,,,,,,,,,,,,,,,,,,,,,,,,,,,,,,,1553.2084412999802,None,1553.2084412999802,None,1553.7085293411092,None,1557.209119008191,1557.209119008191,0.00987667506615253,None,1557.209119008191,1557.209119008191,1560.3496795078418,None,1560.3496795078418,None,None,0.007778762427733454,None,,NENA_030,001,2021_Feb_27_1034,test7,3.2.4,99.98944900721055,
150,104,Saxofonisten spelade toner som publiken orkade inte höra.  ,6,,7,,inc,1,no,153,154,,,,,,,,,,,,,0,63,63,63,,,,,,,,,,,,,,,,,,,,,,,,,,,,,,,,,,,,,,,,,,,,,,,,,,,,,,,,,,,,,,,,,,,,,,,,,,,,,,,,,,,,,,,,,,,,,1565.8500148018138,None,1566.3507164046114,None,1566.3507164046114,None,right,1,3.2546229610616138,1566.3507164046114,None,,,,,,,,,,,,,1569.6212759324417,None,,,,,,,,,,,,,,,,,,,,,,,,,,,,,,,,,1560.3596853740428,None,1560.3596853740428,None,1560.8597836786175,None,1565.3605442962335,1565.3605442962335,0.009873788471850276,None,1565.3605442962335,1565.3605442962335,1571.121483959676,None,1571.121483959676,None,None,0.0082229772269784,None,,NENA_030,001,2021_Feb_27_1034,test7,3.2.4,99.98944900721055,
170,97,Staketet är ganska nymålad och ser bra ut. ,4,,0,,inc,1,no,174,199,,,,,,,,,,,,,0,64,64,64,,,,,,,,,,,,,,,,,,,,,,,,,,,,,,,,,,,,,,,,,,,,,,,,,,,,,,,,,,,,,,,,,,,,,,,,,,,,,,,,,,,,,,,,,,,,,1576.621888531913,None,1577.1225978322955,None,1577.1225978322955,None,left,0,2.2905491938226987,1577.1225978322955,None,,,,,,,,,,,,,1579.4227324438125,None,,,,,,,,,,,,,,,,,,,,,,,,,,,,,,,,,1571.1315401809125,None,1571.1315401809125,None,1571.6316092988109,None,1576.1323917262507,1576.1323917262507,0.009876354334664939,None,1576.1323917262507,1576.1323917262507,1580.9232422805244,None,1580.9232422805244,None,None,0.007688957269238017,None,,NENA_030,001,2021_Feb_27_1034,test7,3.2.4,99.98944900721055,
170,66,Templet är helt renoverat och har öppnat igen för besökare.,4,,0,,cor,1,no,173,199,,,,,,,,,,,,,0,65,65,65,,,,,,,,,,,,,,,,,,,,,,,,,,,,,,,,,,,,,,,,,,,,,,,,,,,,,,,,,,,,,,,,,,,,,,,,,,,,,,,,,,,,,,,,,,,,,1587.423748845763,None,1587.9244632778682,None,1587.9244632778682,None,left,1,0.6004129112880037,1587.9244632778682,None,,,,,,,,,,,,,1588.5348525800218,None,,,,,,,,,,,,,,,,,,,,,,,,,,,,,,,,,1580.9332484674587,None,1580.9332484674587,None,1581.4333300939325,None,1586.9342809060436,1586.9342809060436,0.00987378847275977,None,1586.9342809060436,1586.9342809060436,1590.0348088320807,None,1590.0348088320807,None,None,0.007972805716235598,None,,NENA_030,001,2021_Feb_27_1034,test7,3.2.4,99.98944900721055,
130,47,Vinodlare skördar ofta druvor fulla med skadedjur.,3,,4,,cor,1,no,135,136,,,,,,,,,,,,,0,66,66,66,,,,,,,,,,,,,,,,,,,,,,,,,,,,,,,,,,,,,,,,,,,,,,,,,,,,,,,,,,,,,,,,,,,,,,,,,,,,,,,,,,,,,,,,,,,,,1595.0350451800123,None,1595.5357762902195,None,1595.5357762902195,None,left,1,3.980850974434361,1595.5357762902195,None,,,,,,,,,,,,,1599.526207229892,None,,,,,,,,,,,,,,,,,,,,,,,,,,,,,,,,,1590.044826244659,None,1590.044826244659,None,1590.5449008150135,None,1594.545605464772,1594.545605464772,0.009877957998469356,None,1594.545605464772,1594.545605464772,1601.0267132178114,None,1601.0267132178114,None,None,0.008731338568395586,None,,NENA_030,001,2021_Feb_27_1034,test7,3.2.4,99.98944900721055,
170,82,Silvret är nästan rent och väger ganska mycket. ,4,,0,,cor,1,no,173,199,,,,,,,,,,,,,0,67,67,67,,,,,,,,,,,,,,,,,,,,,,,,,,,,,,,,,,,,,,,,,,,,,,,,,,,,,,,,,,,,,,,,,,,,,,,,,,,,,,,,,,,,,,,,,,,,,1606.5270513983778,None,1607.0277635853554,None,1607.0277635853554,None,left,1,2.2486615022289698,1607.0277635853554,None,,,,,,,,,,,,,1609.2885346716866,None,,,,,,,,,,,,,,,,,,,,,,,,,,,,,,,,,1601.036728385261,None,1601.036728385261,None,1601.536814501993,None,1606.0375356694858,1606.0375356694858,0.009874750669951027,None,1606.0375356694858,1606.0375356694858,1610.7884075332413,None,1610.7884075332413,None,None,0.007914111629361287,None,,NENA_030,001,2021_Feb_27_1034,test7,3.2.4,99.98944900721055,
140,34,Matematiker löser gärna problem som intressera allmänheten.,3,,4,,inc,1,no,133,134,,,,,,,,,,,,,0,68,68,68,,,,,,,,,,,,,,,,,,,,,,,,,,,,,,,,,,,,,,,,,,,,,,,,,,,,,,,,,,,,,,,,,,,,,,,,,,,,,,,,,,,,,,,,,,,,,1615.7886663324625,None,1616.2893602376753,None,1616.2893602376753,None,left,0,2.4907598510644675,1616.2893602376753,None,,,,,,,,,,,,,1618.7898222531403,None,,,,,,,,,,,,,,,,,,,,,,,,,,,,,,,,,1610.7984204555623,None,1610.7984204555623,None,1611.2984796307464,None,1615.2991906951593,1615.2991906951593,0.009876354333755444,None,1615.2991906951593,1615.2991906951593,1620.2899889058554,None,1620.2899889058554,None,None,0.008183847837244684,None,,NENA_030,001,2021_Feb_27_1034,test7,3.2.4,99.98944900721055,
180,58,Vattenkannan som grannen hade fyllt med vatten och extra dyr växtnäring var helt vit och stod på köksbordet. ,14,,0,,cor,1,no,181,199,,,,,,,,,,,,,0,69,69,69,,,,,,,,,,,,,,,,,,,,,,,,,,,,,,,,,,,,,,,,,,,,,,,,,,,,,,,,,,,,,,,,,,,,,,,,,,,,,,,,,,,,,,,,,,,,,1630.7912305904592,None,1631.2919870385495,None,1631.2919870385495,None,right,0,1.4718574689504749,1631.2919870385495,None,,,,,,,,,,,,,1632.7819813006417,None,,,,,,,,,,,,,,,,,,,,,,,,,,,,,,,,,1620.3000512210128,None,1620.3000512210128,None,1620.800130602358,None,1630.3018097984477,1630.3018097984477,0.009872184808045859,None,1630.3018097984477,1630.3018097984477,1634.2824212176229,None,1634.2824212176229,None,None,0.008190903956347029,None,,NENA_030,001,2021_Feb_27_1034,test7,3.2.4,99.98944900721055,
130,9,Meteorologer förutspår ofta väder utifrån datormodeller.,3,,4,,cor,1,no,131,132,,,,,,,,,,,,,0,70,70,70,,,,,,,,,,,,,,,,,,,,,,,,,,,,,,,,,,,,,,,,,,,,,,,,,,,,,,,,,,,,,,,,,,,,,,,,,,,,,,,,,,,,,,,,,,,,,1638.7826551600592,None,1639.2833590079863,None,1639.2833590079863,None,left,1,0.9842218751891778,1639.2833590079863,None,,,,,,,,,,,,,1640.2834600387887,None,,,,,,,,,,,,,,,,,,,,,,,,,,,,,,,,,1634.292428046022,None,1634.292428046022,None,1634.7925632348588,None,1638.2931798434884,1638.2931798434884,0.009870901877548022,None,1638.2931798434884,1638.2931798434884,1641.7837553053196,None,1641.7837553053196,None,None,0.008292576224448567,None,,NENA_030,001,2021_Feb_27_1034,test7,3.2.4,99.98944900721055,
150,31,Lakrits innehåller sötningsmedel som barnen inte fick äta.  ,6,,7,,cor,1,no,151,152,,,,,,,,,,,,,0,71,71,71,,,,,,,,,,,,,,,,,,,,,,,,,,,,,,,,,,,,,,,,,,,,,,,,,,,,,,,,,,,,,,,,,,,,,,,,,,,,,,,,,,,,,,,,,,,,,1647.2841239554937,None,1647.7848021448035,None,1647.7848021448035,None,left,1,0.7305989587093791,1647.7848021448035,None,,,,,,,,,,,,,1648.5249121112192,None,,,,,,,,,,,,,,,,,,,,,,,,,,,,,,,,,1641.793793886257,None,1641.793793886257,None,1642.2938639663535,None,1646.7946726938753,1646.7946726938753,0.009879240928967192,None,1646.7946726938753,1646.7946726938753,1650.02520032163,None,1650.02520032163,None,None,0.008638326083200809,None,,NENA_030,001,2021_Feb_27_1034,test7,3.2.4,99.98944900721055,
170,114,Havet är ganska förorenat till följd av ansvarslös båttrafik. ,4,,0,,cor,1,no,173,199,,,,,,,,,,,,,0,72,72,72,,,,,,,,,,,,,,,,,,,,,,,,,,,,,,,,,,,,,,,,,,,,,,,,,,,,,,,,,,,,,,,,,,,,,,,,,,,,,,,,,,,,,,,,,,,,,1656.0256271847911,None,1656.5263489937488,None,1656.5263489937488,None,left,1,3.6688075574893446,1656.5263489937488,None,,,,,,,,,,,,,1660.2070865250244,None,,,,,,,,,,,,,,,,,,,,,,,,,,,,,,,,,1650.0352180549417,None,1650.0352180549417,None,1650.5352910216325,None,1655.5361650182604,1655.5361650182604,0.009876033601358358,None,1655.5361650182604,1655.5361650182604,1661.7072127654183,None,1661.7072127654183,None,None,0.008109117116873676,None,,NENA_030,001,2021_Feb_27_1034,test7,3.2.4,99.98944900721055,
150,88,Fabriken använde kemikalier som miljökontoret har inte haft rätt att kontrollera. ,6,,7,,inc,1,no,153,154,,,,,,,,,,,,,0,73,73,73,,,,,,,,,,,,,,,,,,,,,,,,,,,,,,,,,,,,,,,,,,,,,,,,,,,,,,,,,,,,,,,,,,,,,,,,,,,,,,,,,,,,,,,,,,,,,1668.7078391243222,None,1669.2085153892358,None,1669.2085153892358,None,left,0,3.3542515205135714,1669.2085153892358,None,,,,,,,,,,,,,1672.5790059274605,None,,,,,,,,,,,,,,,,,,,,,,,,,,,,,,,,,1661.7172548744147,None,1661.7172548744147,None,1662.217287108052,None,1668.2183849761095,1668.2183849761095,0.009879561661364278,None,1668.2183849761095,1668.2183849761095,1674.0793865088917,None,1674.0793865088917,None,None,0.007914432362667867,None,,NENA_030,001,2021_Feb_27_1034,test7,3.2.4,99.98944900721055,
170,61,Jordskredet var ganska farligt för de närliggande husen. ,4,,0,,cor,1,no,173,199,,,,,,,,,,,,,0,74,74,74,,,,,,,,,,,,,,,,,,,,,,,,,,,,,,,,,,,,,,,,,,,,,,,,,,,,,,,,,,,,,,,,,,,,,,,,,,,,,,,,,,,,,,,,,,,,,1679.5896895339465,None,1680.0904219270833,None,1680.0904219270833,None,left,1,3.800317589527367,1680.0904219270833,None,,,,,,,,,,,,,1683.9008567091341,None,,,,,,,,,,,,,,,,,,,,,,,,,,,,,,,,,1674.0893734518631,None,1674.0893734518631,None,1674.5894669454474,None,1679.100250460171,1679.100250460171,0.00987667506615253,None,1679.100250460171,1679.100250460171,1685.401330623783,None,1685.401330623783,None,None,0.008644099271805317,None,,NENA_030,001,2021_Feb_27_1034,test7,3.2.4,99.98944900721055,
140,42,Troende ber ofta böner i svåra tid.,3,,4,,inc,1,no,135,136,,,,,,,,,,,,,0,75,75,75,,,,,,,,,,,,,,,,,,,,,,,,,,,,,,,,,,,,,,,,,,,,,,,,,,,,,,,,,,,,,,,,,,,,,,,,,,,,,,,,,,,,,,,,,,,,,1690.4015955169261,None,1690.9022756306322,None,1690.9022756306322,None,right,1,2.8519805725782135,1690.9022756306322,None,,,,,,,,,,,,,1693.7726848631155,None,,,,,,,,,,,,,,,,,,,,,,,,,,,,,,,,,1685.4113502814907,None,1685.4113502814907,None,1685.9113748175432,None,1689.9121343125944,1689.9121343125944,0.009876995798549615,None,1689.9121343125944,1689.9121343125944,1695.2730545396344,None,1695.2730545396344,None,None,0.007908338441666274,None,,NENA_030,001,2021_Feb_27_1034,test7,3.2.4,99.98944900721055,
170,100,Olyckan var väldigt hemskt och hela landet sörjde.,4,,0,,inc,1,no,172,199,,,,,,,,,,,,,0,76,76,76,,,,,,,,,,,,,,,,,,,,,,,,,,,,,,,,,,,,,,,,,,,,,,,,,,,,,,,,,,,,,,,,,,,,,,,,,,,,,,,,,,,,,,,,,,,,,1700.773362250594,None,1701.2740891912754,None,1701.2740891912754,None,left,0,3.1038773056270657,1701.2740891912754,None,,,,,,,,,,,,,1704.3943533723914,None,,,,,,,,,,,,,,,,,,,,,,,,,,,,,,,,,1695.2830719522126,None,1695.2830719522126,None,1695.7831487676967,None,1700.2839247804823,1700.2839247804823,0.009875712868051778,None,1700.2839247804823,1700.2839247804823,1705.8948731518176,None,1705.8948731518176,None,None,0.0084218315059843,None,,NENA_030,001,2021_Feb_27_1034,test7,3.2.4,99.98944900721055,
170,96,Sagan är ganska komisk men kan inte visas på teve.,4,,0,,cor,1,no,171,199,,,,,,,,,,,,,0,77,77,77,,,,,,,,,,,,,,,,,,,,,,,,,,,,,,,,,,,,,,,,,,,,,,,,,,,,,,,,,,,,,,,,,,,,,,,,,,,,,,,,,,,,,,,,,,,,,1712.3953858109771,None,1712.8960992808852,None,1712.8960992808852,None,left,1,1.0177249723446948,1712.8960992808852,None,,,,,,,,,,,,,1713.926023001025,None,,,,,,,,,,,,,,,,,,,,,,,,,,,,,,,,,1705.9048867156034,None,1705.9048867156034,None,1706.404977001861,None,1711.90587777967,1711.90587777967,0.009876995798549615,None,1711.90587777967,1711.90587777967,1715.4265402145893,None,1715.4265402145893,None,None,0.007764329456222185,None,,NENA_030,001,2021_Feb_27_1034,test7,3.2.4,99.98944900721055,
170,24,Spriten är ganska dyr att importera.  ,4,,0,,cor,1,no,171,199,,,,,,,,,,,,,0,78,78,78,,,,,,,,,,,,,,,,,,,,,,,,,,,,,,,,,,,,,,,,,,,,,,,,,,,,,,,,,,,,,,,,,,,,,,,,,,,,,,,,,,,,,,,,,,,,,1719.9266942945815,None,1720.4274112925496,None,1720.4274112925496,None,left,1,5.286304296439084,1720.4274112925496,None,,,,,,,,,,,,,1725.7282925698091,None,,,,,,,,,,,,,,,,,,,,,,,,,,,,,,,,,1715.436551853979,None,1715.436551853979,None,1715.9366212926097,None,1719.4372260341297,1719.4372260341297,0.00987763726425328,None,1719.4372260341297,1719.4372260341297,1727.2285605740599,None,1727.2285605740599,None,None,0.008532805022696266,None,,NENA_030,001,2021_Feb_27_1034,test7,3.2.4,99.98944900721055,
160,22,Kassörskan i snabbköpet såg inbrottstjuvarna tvärsöver gatan som de boende i det drabbade huset inte hade lagt märke till.,15,,16,,cor,1,no,161,162,,,,,,,,,,,,,0,79,79,79,,,,,,,,,,,,,,,,,,,,,,,,,,,,,,,,,,,,,,,,,,,,,,,,,,,,,,,,,,,,,,,,,,,,,,,,,,,,,,,,,,,,,,,,,,,,,1738.2298829229394,None,1738.730584525737,None,1738.730584525737,None,left,1,0.20658040881244233,1738.730584525737,None,,,,,,,,,,,,,1738.9505975410702,None,,,,,,,,,,,,,,,,,,,,,,,,,,,,,,,,,1727.2385940232743,None,1727.2385940232743,None,1727.7386836680653,None,1737.7404329442525,1737.7404329442525,0.009871222609945107,None,1737.7404329442525,1737.7404329442525,1740.4508687526477,None,1740.4508687526477,None,None,0.00832240436648135,None,,NENA_030,001,2021_Feb_27_1034,test7,3.2.4,99.98944900721055,
180,4,Rummet som hade lånats ut till ett yngre par på genomresa var fruktansvärt stökig när de åkte. ,14,,0,,inc,1,no,182,199,,,,,,,,,,,,,0,80,80,80,,,,,,,,,,,,,,,,,,,,,,,,,,,,,,,,,,,,,,,,,,,,,,,,,,,,,,,,,,,,,,,,,,,,,,,,,,,,,,,,,,,,,,,,,,,,,1750.4519653057014,None,1750.9527259233173,None,1750.9527259233173,None,right,1,0.28814786804196046,1750.9527259233173,None,,,,,,,,,,,,,1751.2524429408495,None,,,,,,,,,,,,,,,,,,,,,,,,,,,,,,,,,1740.460883599365,None,1740.460883599365,None,1740.96095239653,None,1749.9625387405013,1749.9625387405013,0.009875071402348112,None,1749.9625387405013,1749.9625387405013,1752.7529967179416,None,1752.7529967179416,None,None,0.008056516951000958,None,,NENA_030,001,2021_Feb_27_1034,test7,3.2.4,99.98944900721055,
150,33,Barn berättar saker men lärare kan inte veta om dem. ,6,,7,,cor,1,no,155,156,,,,,,,,,,,,,0,81,81,81,,,,,,,,,,,,,,,,,,,,,,,,,,,,,,,,,,,,,,,,,,,,,,,,,,,,,,,,,,,,,,,,,,,,,,,,,,,,,,,,,,,,,,,,,,,,,1759.2535299039946,None,1759.75425844834,None,1759.75425844834,None,left,1,4.19825098039928,1759.75425844834,None,,,,,,,,,,,,,1763.9653416236324,None,,,,,,,,,,,,,,,,,,,,,,,,,,,,,,,,,1752.7629692279415,None,1752.7629692279415,None,1753.2631024923812,None,1758.7640651716029,1758.7640651716029,0.009874109205156856,None,1758.7640651716029,1758.7640651716029,1765.4652058254032,None,1765.4652058254032,None,None,0.007868246852012817,None,,NENA_030,001,2021_Feb_27_1034,test7,3.2.4,99.98944900721055,
170,89,Seglet är för bred för den starka vinden. ,4,,0,,inc,1,no,174,199,,,,,,,,,,,,,0,82,82,82,,,,,,,,,,,,,,,,,,,,,,,,,,,,,,,,,,,,,,,,,,,,,,,,,,,,,,,,,,,,,,,,,,,,,,,,,,,,,,,,,,,,,,,,,,,,,1770.965527007137,None,1771.4662616454034,None,1771.4662616454034,None,right,1,2.4862477833357843,1771.4662616454034,None,,,,,,,,,,,,,1773.96667170217,None,,,,,,,,,,,,,,,,,,,,,,,,,,,,,,,,,1765.4752258038443,None,1765.4752258038443,None,1765.975324108419,None,1770.4760824809055,1770.4760824809055,0.009875071403257607,None,1770.4760824809055,1770.4760824809055,1775.4669195002598,None,1775.4669195002598,None,None,0.008262106617621612,None,,NENA_030,001,2021_Feb_27_1034,test7,3.2.4,99.98944900721055,
160,55,Meteorologer i hela Europa förutspådde det extrema vädret som invånarna i de södra delarna av kontinenten inte hade mått bra av.,17,,18,,cor,1,no,161,162,,,,,,,,,,,,,0,83,83,83,,,,,,,,,,,,,,,,,,,,,,,,,,,,,,,,,,,,,,,,,,,,,,,,,,,,,,,,,,,,,,,,,,,,,,,,,,,,,,,,,,,,,,,,,,,,,1787.4684086301468,None,1787.9690406339469,None,1787.9690406339469,None,left,1,0.5669120592610852,1787.9690406339469,None,,,,,,,,,,,,,1788.549134166019,None,,,,,,,,,,,,,,,,,,,,,,,,,,,,,,,,,1775.4769340262437,None,1775.4769340262437,None,1775.9770201429756,None,1786.9789480672807,1786.9789480672807,0.009875712868961273,None,1786.9789480672807,1786.9789480672807,1790.0494605436224,None,1790.0494605436224,None,None,0.008338120269399951,None,,NENA_030,001,2021_Feb_27_1034,test7,3.2.4,99.98944900721055,
150,97,Mannen köpte bilen men mekanikern kunde inte reparera den.  ,6,,7,,cor,1,no,155,156,,,,,,,,,,,,,0,84,84,84,,,,,,,,,,,,,,,,,,,,,,,,,,,,,,,,,,,,,,,,,,,,,,,,,,,,,,,,,,,,,,,,,,,,,,,,,,,,,,,,,,,,,,,,,,,,,1796.0498803506634,None,1796.55058900958,None,1796.55058900958,None,left,1,3.928989137103599,1796.55058900958,None,,,,,,,,,,,,,1800.5012965619699,None,,,,,,,,,,,,,,,,,,,,,,,,,,,,,,,,,1790.0594776354683,None,1790.0594776354683,None,1790.5595079447094,None,1795.56043325857,1795.56043325857,0.00987699579945911,None,1795.56043325857,1795.56043325857,1802.0015514161787,None,1802.0015514161787,None,None,0.008999150379167986,None,,NENA_030,001,2021_Feb_27_1034,test7,3.2.4,99.98944900721055,
130,71,Programmerare utvecklar gärna program för moderna mobiltelefoner.,3,,4,,cor,1,no,137,138,,,,,,,,,,,,,0,85,85,85,,,,,,,,,,,,,,,,,,,,,,,,,,,,,,,,,,,,,,,,,,,,,,,,,,,,,,,,,,,,,,,,,,,,,,,,,,,,,,,,,,,,,,,,,,,,,1807.0017678786835,None,1807.502518553585,None,1807.502518553585,None,left,1,1.9689056054776302,1807.502518553585,None,,,,,,,,,,,,,1809.4828037555235,None,,,,,,,,,,,,,,,,,,,,,,,,,,,,,,,,,1802.0115296993672,None,1802.0115296993672,None,1802.5116347393287,None,1806.5122992974984,1806.5122992974984,0.00987699579945911,None,1806.5122992974984,1806.5122992974984,1810.983077532962,None,1810.983077532962,None,None,0.008296425016851572,None,,NENA_030,001,2021_Feb_27_1034,test7,3.2.4,99.98944900721055,
170,87,Plasten var för mjukt för att kunna användas. ,4,,0,,inc,1,no,172,199,,,,,,,,,,,,,0,86,86,86,,,,,,,,,,,,,,,,,,,,,,,,,,,,,,,,,,,,,,,,,,,,,,,,,,,,,,,,,,,,,,,,,,,,,,,,,,,,,,,,,,,,,,,,,,,,,1816.483440089215,None,1816.984108656543,None,1816.984108656543,None,left,0,2.9990525555822387,1816.984108656543,None,,,,,,,,,,,,,1819.994395516669,None,,,,,,,,,,,,,,,,,,,,,,,,,,,,,,,,,1810.9930923796792,None,1810.9930923796792,None,1811.4931499512004,None,1815.993948736008,1815.993948736008,0.009871543343251687,None,1815.993948736008,1815.993948736008,1821.4949178619572,None,1821.4949178619572,None,None,0.007771064842927444,None,,NENA_030,001,2021_Feb_27_1034,test7,3.2.4,99.98944900721055,
170,81,Guldet är redan vägd och transporteras nu till banken. ,4,,0,,inc,1,yes,174,199,,,,,,,,,,,,,0,87,87,87,,,,,,,,,,,,,,,,,,,,,,,,,,,,,,,,,,,,,,,,,,,,,,,,,,,,,,,,,,,,,,,,,,,,,,,,,,,,,,,,,,,,,,,,,,,,,1827.4953177835696,None,1827.9960610816197,None,1827.9960610816197,None,left,0,0.6428099264212506,1827.9960610816197,None,,,,,,,,,,,,,1828.6558938964881,None,,,,,,,,,,,,,,,,,,,,,,,,,,,,,,,,,1821.504925331822,None,1821.504925331822,None,1822.0050072790282,None,1827.0058844829837,1827.0058844829837,0.009875712868051778,None,1827.0058844829837,1827.0058844829837,1830.156163151596,None,1830.156163151596,None,space,0.008034386394683679,None,18.01788437650066,NENA_030,001,2021_Feb_27_1034,test7,3.2.4,99.98944900721055,
170,38,Tältet var lagom rymlig för familjen.  ,4,,0,,inc,1,no,174,199,,,,,,,,,,,,,0,88,88,88,,,,,,,,,,,,,,,,,,,,,,,,,,,,,,,,,,,,,,,,,,,,,,,,,,,,,,,,,,,,,,,,,,,,,,,,,,,,,,,,,,,,,,,,,,,,,1852.6796945085107,None,1853.1804050918236,None,1853.1804050918236,None,left,0,6.497744447234254,1853.1804050918236,None,,,,,,,,,,,,,1859.6913252386812,None,,,,,,,,,,,,,,,,,,,,,,,,,,,,,,,,,1848.1895507849767,None,1848.1895507849767,None,1848.6896192614104,None,1852.1902118150865,1852.1902118150865,0.009876354333755444,None,1852.1902118150865,1852.1902118150865,1861.1917805508328,None,1861.1917805508328,None,None,0.008471865809042356,None,,NENA_030,001,2021_Feb_27_1034,test7,3.2.4,99.98944900721055,
140,45,Ekorrar samlar gärna nötter innan de första kall dagarna.,3,,4,,inc,1,no,135,136,,,,,,,,,,,,,0,89,89,89,,,,,,,,,,,,,,,,,,,,,,,,,,,,,,,,,,,,,,,,,,,,,,,,,,,,,,,,,,,,,,,,,,,,,,,,,,,,,,,,,,,,,,,,,,,,,1867.1922029237348,None,1867.6929253741582,None,1867.6929253741582,None,left,0,5.248914239602527,1867.6929253741582,None,,,,,,,,,,,,,1872.9538093584024,None,,,,,,,,,,,,,,,,,,,,,,,,,,,,,,,,,1861.201793473153,None,1861.201793473153,None,1861.70187542036,None,1866.7027150985878,1866.7027150985878,0.00987795799755986,None,1866.7027150985878,1866.7027150985878,1874.4540834565742,None,1874.4540834565742,None,None,0.008329460485583695,None,,NENA_030,001,2021_Feb_27_1034,test7,3.2.4,99.98944900721055,
170,77,Resultatet blev ganska dåligt men tränaren var nöjd. ,4,,0,,cor,1,no,173,199,,,,,,,,,,,,,0,90,90,90,,,,,,,,,,,,,,,,,,,,,,,,,,,,,,,,,,,,,,,,,,,,,,,,,,,,,,,,,,,,,,,,,,,,,,,,,,,,,,,,,,,,,,,,,,,,,1879.9544437676977,None,1880.4551094484323,None,1880.4551094484323,None,left,1,0.19853162151866854,1880.4551094484323,None,,,,,,,,,,,,,1880.665036703047,None,,,,,,,,,,,,,,,,,,,,,,,,,,,,,,,,,1874.4640957374295,None,1874.4640957374295,None,1874.9641747980422,None,1879.4649508108278,1879.4649508108278,0.00986993967944727,None,1879.4649508108278,1879.4649508108278,1882.1654160015469,None,1882.1654160015469,None,None,0.008440754734692746,None,,NENA_030,001,2021_Feb_27_1034,test7,3.2.4,99.98944900721055,
170,4,Löken är ganska starkt men smakar helt okej. ,4,,0,,inc,1,no,172,199,,,,,,,,,,,,,0,91,91,91,,,,,,,,,,,,,,,,,,,,,,,,,,,,,,,,,,,,,,,,,,,,,,,,,,,,,,,,,,,,,,,,,,,,,,,,,,,,,,,,,,,,,,,,,,,,,1887.6657580309056,None,1888.1664509739203,None,1888.1664509739203,None,right,1,0.11093085932952818,1888.1664509739203,None,,,,,,,,,,,,,1888.2961684308566,None,,,,,,,,,,,,,,,,,,,,,,,,,,,,,,,,,1882.1754388665813,None,1882.1754388665813,None,1882.675510871074,None,1887.1763247303197,1887.1763247303197,0.009876033601358358,None,1887.1763247303197,1887.1763247303197,1889.7967424141098,None,1889.7967424141098,None,None,0.00866526763093134,None,,NENA_030,001,2021_Feb_27_1034,test7,3.2.4,99.98944900721055,
170,10,Ämnet är väldigt farligt för småbarn.  ,4,,0,,cor,1,no,173,199,,,,,,,,,,,,,0,92,92,92,,,,,,,,,,,,,,,,,,,,,,,,,,,,,,,,,,,,,,,,,,,,,,,,,,,,,,,,,,,,,,,,,,,,,,,,,,,,,,,,,,,,,,,,,,,,,1894.2969093234105,None,1894.7975878334537,None,1894.7975878334537,None,left,1,4.111547949059059,1894.7975878334537,None,,,,,,,,,,,,,1898.9180306626877,None,,,,,,,,,,,,,,,,,,,,,,,,,,,,,,,,,1889.806744110786,None,1889.806744110786,None,1890.3068404909645,None,1893.8074567788617,1893.8074567788617,0.009872826273749524,None,1893.8074567788617,1893.8074567788617,1900.4185526872425,None,1900.4185526872425,None,None,0.007974088646733435,None,,NENA_030,001,2021_Feb_27_1034,test7,3.2.4,99.98944900721055,
140,24,Cowboys rider gärna hästar på öppen slätter.,3,,4,,inc,1,no,133,134,,,,,,,,,,,,,0,93,93,93,,,,,,,,,,,,,,,,,,,,,,,,,,,,,,,,,,,,,,,,,,,,,,,,,,,,,,,,,,,,,,,,,,,,,,,,,,,,,,,,,,,,,,,,,,,,,1905.428814818877,None,1905.929552664471,None,1905.929552664471,None,left,0,4.491290663694599,1905.929552664471,None,,,,,,,,,,,,,1910.440017691616,None,,,,,,,,,,,,,,,,,,,,,,,,,,,,,,,,,1900.4285646473654,None,1900.4285646473654,None,1900.9286767434469,None,1904.9393895366084,1904.9393895366084,0.009878599462354032,None,1904.9393895366084,1904.9393895366084,1911.94058109069,None,1911.94058109069,None,None,0.007655601068108808,None,,NENA_030,001,2021_Feb_27_1034,test7,3.2.4,99.98944900721055,
170,14,Havet är helt frusen men isen är mycket tunn. ,4,,0,,inc,1,no,174,199,,,,,,,,,,,,,0,94,94,94,,,,,,,,,,,,,,,,,,,,,,,,,,,,,,,,,,,,,,,,,,,,,,,,,,,,,,,,,,,,,,,,,,,,,,,,,,,,,,,,,,,,,,,,,,,,,1917.941013085573,None,1918.4417172542326,None,1918.4417172542326,None,right,1,0.09096845561725786,1918.4417172542326,None,,,,,,,,,,,,,1918.551418424362,None,,,,,,,,,,,,,,,,,,,,,,,,,,,,,,,,,1911.9505908056835,None,1911.9505908056835,None,1912.4506759602173,None,1917.451538410468,1917.451538410468,0.009876033601358358,None,1917.451538410468,1917.451538410468,1920.051999143002,None,1920.051999143002,None,None,0.007808269836459658,None,,NENA_030,001,2021_Feb_27_1034,test7,3.2.4,99.98944900721055,
150,114,Mamman kokade soppan men barnen inte fick smaka den.  ,6,,7,,inc,1,no,157,158,,,,,,,,,,,,,0,95,95,95,,,,,,,,,,,,,,,,,,,,,,,,,,,,,,,,,,,,,,,,,,,,,,,,,,,,,,,,,,,,,,,,,,,,,,,,,,,,,,,,,,,,,,,,,,,,,1926.0523904048314,None,1926.5531195906424,None,1926.5531195906424,None,left,0,0.5073584101410233,1926.5531195906424,None,,,,,,,,,,,,,1927.0735007109033,None,,,,,,,,,,,,,,,,,,,,,,,,,,,,,,,,,1920.0619995567467,None,1920.0619995567467,None,1920.5620792588252,None,1925.5629599908398,1925.5629599908398,0.00987667506615253,None,1925.5629599908398,1925.5629599908398,1928.5734450958525,None,1928.5734450958525,None,None,0.005211938570027996,None,,NENA_030,001,2021_Feb_27_1034,test7,3.2.4,99.98944900721055,
150,75,Artisten övade sången som gitarristen ville inte spela.  ,6,,7,,inc,1,no,153,154,,,,,,,,,,,,,0,96,96,96,,,,,,,,,,,,,,,,,,,,,,,,,,,,,,,,,,,,,,,,,,,,,,,,,,,,,,,,,,,,,,,,,,,,,,,,,,,,,,,,,,,,,,,,,,,,,1934.0738143874914,None,1934.574509896368,None,1934.574509896368,None,right,1,0.31776240185172355,1934.574509896368,None,,,,,,,,,,,,,1934.9042535892395,None,,,,,,,,,,,,,,,,,,,,,,,,,,,,,,,,,1928.5834621876984,None,1928.5834621876984,None,1929.0835624166693,None,1933.5843381087225,1933.5843381087225,0.00986993967944727,None,1933.5843381087225,1933.5843381087225,1936.404837515206,None,1936.404837515206,None,None,0.008125474484586448,None,,NENA_030,001,2021_Feb_27_1034,test7,3.2.4,99.98944900721055,
150,47,Djuren fick rättigheter som djurrättsaktivisterna inte hade krävt från början. ,6,,7,,cor,1,no,151,152,,,,,,,,,,,,,0,97,97,97,,,,,,,,,,,,,,,,,,,,,,,,,,,,,,,,,,,,,,,,,,,,,,,,,,,,,,,,,,,,,,,,,,,,,,,,,,,,,,,,,,,,,,,,,,,,,1942.9053431182465,None,1943.4060626820756,None,1943.4060626820756,None,right,0,1.9738711892550782,1943.4060626820756,None,,,,,,,,,,,,,1945.396372705518,None,,,,,,,,,,,,,,,,,,,,,,,,,,,,,,,,,1936.4148392118823,None,1936.4148392118823,None,1936.914891972413,None,1942.415868122408,1942.415868122408,0.009870901877548022,None,1942.415868122408,1942.415868122408,1946.896640068303,None,1946.896640068303,None,None,0.0076058874974478385,None,,NENA_030,001,2021_Feb_27_1034,test7,3.2.4,99.98944900721055,
180,60,Gräset som det här året hade vuxit på den stora ängen var makalöst grön och såg inbjudande ut. ,14,,0,,inc,1,no,182,199,,,,,,,,,,,,,0,98,98,98,,,,,,,,,,,,,,,,,,,,,,,,,,,,,,,,,,,,,,,,,,,,,,,,,,,,,,,,,,,,,,,,,,,,,,,,,,,,,,,,,,,,,,,,,,,,,1957.3978519247648,None,1957.8985285104109,None,1957.8985285104109,None,right,1,0.1771599182902719,1957.8985285104109,None,,,,,,,,,,,,,1958.0884523075274,None,,,,,,,,,,,,,,,,,,,,,,,,,,,,,,,,,1946.906661650407,None,1946.906661650407,None,1947.4067265987796,None,1956.908396814354,1956.908396814354,0.009873147007056104,None,1956.908396814354,1956.908396814354,1959.5888203803825,None,1959.5888203803825,None,None,0.008417982713581296,None,,NENA_030,001,2021_Feb_27_1034,test7,3.2.4,99.98944900721055,
170,1,Trädet är mycket gammal och måste därför fällas snart. ,4,,0,,inc,1,no,174,199,,,,,,,,,,,,,0,99,99,99,,,,,,,,,,,,,,,,,,,,,,,,,,,,,,,,,,,,,,,,,,,,,,,,,,,,,,,,,,,,,,,,,,,,,,,,,,,,,,,,,,,,,,,,,,,,,1965.5892478850083,None,1966.0899687317678,None,1966.0899687317678,None,right,1,0.28151351198812335,1966.0899687317678,None,,,,,,,,,,,,,1966.3897078798573,None,,,,,,,,,,,,,,,,,,,,,,,,,,,,,,,,,1959.598845169813,None,1959.598845169813,None,1960.0989303243468,None,1965.0998084905004,1965.0998084905004,0.00987731653276569,None,1965.0998084905004,1965.0998084905004,1967.8902732033275,None,1967.8902732033275,None,None,0.0075609849191096146,None,,NENA_030,001,2021_Feb_27_1034,test7,3.2.4,99.98944900721055,
170,118,Golvet var hemskt hård att ligga på.  ,4,,0,,inc,1,no,174,199,,,,,,,,,,,,,0,100,100,100,,,,,,,,,,,,,,,,,,,,,,,,,,,,,,,,,,,,,,,,,,,,,,,,,,,,,,,,,,,,,,,,,,,,,,,,,,,,,,,,,,,,,,,,,,,,,1972.8905198147058,None,1973.3912371334063,None,1973.3912371334063,None,right,1,0.29200756544378237,1973.3912371334063,None,,,,,,,,,,,,,1973.7009770480463,None,,,,,,,,,,,,,,,,,,,,,,,,,,,,,,,,,1967.9002761829342,None,1967.9002761829342,None,1968.4003626203985,None,1972.4010307066283,1972.4010307066283,0.009876033601358358,None,1972.4010307066283,1972.4010307066283,1975.2015446166452,None,1975.2015446166452,None,None,0.006890012094117992,None,,NENA_030,001,2021_Feb_27_1034,test7,3.2.4,99.98944900721055,
130,60,Sjömän styr ofta båtar genom våldsamma åskväder.,3,,4,,cor,1,no,137,138,,,,,,,,,,,,,0,101,101,101,,,,,,,,,,,,,,,,,,,,,,,,,,,,,,,,,,,,,,,,,,,,,,,,,,,,,,,,,,,,,,,,,,,,,,,,,,,,,,,,,,,,,,,,,,,,,1980.2017854548358,None,1980.70249732108,None,1980.70249732108,None,left,1,0.708620108465766,1980.70249732108,None,,,,,,,,,,,,,1981.4223626390012,None,,,,,,,,,,,,,,,,,,,,,,,,,,,,,,,,,1975.211578386592,None,1975.211578386592,None,1975.7116478252237,None,1979.7123034028773,1979.7123034028773,0.009876354332845949,None,1979.7123034028773,1979.7123034028773,1982.9229080770438,None,1982.9229080770438,None,None,0.00775246234570659,None,,NENA_030,001,2021_Feb_27_1034,test7,3.2.4,99.98944900721055,
180,43,Myntet som på den här tiden faktiskt räckte till ett par nya skor såg fantastiskt blankt ut i solskenet. ,16,,0,,cor,1,no,181,199,,,,,,,,,,,,,0,102,102,102,,,,,,,,,,,,,,,,,,,,,,,,,,,,,,,,,,,,,,,,,,,,,,,,,,,,,,,,,,,,,,,,,,,,,,,,,,,,,,,,,,,,,,,,,,,,,1993.9241682037782,None,1994.4248887298054,None,1994.4248887298054,None,left,1,2.290010362873545,1994.4248887298054,None,,,,,,,,,,,,,1996.7257109922475,None,,,,,,,,,,,,,,,,,,,,,,,,,,,,,,,,,1982.9328889260933,None,1982.9328889260933,None,1983.4329660623098,None,1993.4346813408292,1993.4346813408292,0.009874750670860521,None,1993.4346813408292,1993.4346813408292,1998.2255553085906,None,1998.2255553085906,None,None,0.007926620204671053,None,,NENA_030,001,2021_Feb_27_1034,test7,3.2.4,99.98944900721055,
170,78,Slaget var mycket våldsam och många skadades.  ,4,,0,,inc,1,no,174,199,,,,,,,,,,,,,0,103,103,103,,,,,,,,,,,,,,,,,,,,,,,,,,,,,,,,,,,,,,,,,,,,,,,,,,,,,,,,,,,,,,,,,,,,,,,,,,,,,,,,,,,,,,,,,,,,,2003.2257929394536,None,2003.7264862032007,None,2003.7264862032007,None,right,1,0.2920508643583162,2003.7264862032007,None,,,,,,,,,,,,,2004.0363983513053,None,,,,,,,,,,,,,,,,,,,,,,,,,,,,,,,,,1998.235558929663,None,1998.235558929663,None,1998.7356177841148,None,2002.7363128118923,2002.7363128118923,0.009875712868051778,None,2002.7363128118923,2002.7363128118923,2005.53680908161,None,2005.53680908161,None,None,0.007928865334179136,None,,NENA_030,001,2021_Feb_27_1034,test7,3.2.4,99.98944900721055,
180,35,Staketet som löper runt hela odlingen för att hålla obehöriga på avstånd är för högt för nyfikna rådjur. ,15,,0,,cor,1,no,181,199,,,,,,,,,,,,,0,104,104,104,,,,,,,,,,,,,,,,,,,,,,,,,,,,,,,,,,,,,,,,,,,,,,,,,,,,,,,,,,,,,,,,,,,,,,,,,,,,,,,,,,,,,,,,,,,,,2016.038003618506,None,2016.5387087493636,None,2016.5387087493636,None,left,1,0.839415868764263,2016.5387087493636,None,,,,,,,,,,,,,2017.3885859568463,None,,,,,,,,,,,,,,,,,,,,,,,,,,,,,,,,,2005.5468216831987,None,2005.5468216831987,None,2006.0468638595494,None,2015.5485369617181,2015.5485369617181,0.009874429937553941,None,2015.5485369617181,2015.5485369617181,2018.8891140753221,None,2018.8891140753221,None,None,0.007810194232661161,None,,NENA_030,001,2021_Feb_27_1034,test7,3.2.4,99.98944900721055,
150,116,Kanalen visade filmer som familjen inte hade sett.  ,6,,7,,cor,1,no,151,152,,,,,,,,,,,,,0,105,105,105,,,,,,,,,,,,,,,,,,,,,,,,,,,,,,,,,,,,,,,,,,,,,,,,,,,,,,,,,,,,,,,,,,,,,,,,,,,,,,,,,,,,,,,,,,,,,2024.3894557839485,None,2024.890164442866,None,2024.890164442866,None,left,1,1.2718270634895816,2024.890164442866,None,,,,,,,,,,,,,2026.180099754286,None,,,,,,,,,,,,,,,,,,,,,,,,,,,,,,,,,2018.8991135268698,None,2018.8991135268698,None,2019.3992118314445,None,2023.899966675871,2023.899966675871,0.009875392135654693,None,2023.899966675871,2023.899966675871,2027.6806426264666,None,2027.6806426264666,None,None,0.00809211828163825,None,,NENA_030,001,2021_Feb_27_1034,test7,3.2.4,99.98944900721055,
180,23,Pianot som alldeles nyss hade burits in i vardagsrummet av männen från flyttfirman var fruktansvärt ostämd och lät förskräckligt. ,16,,0,,inc,1,no,182,199,,,,,,,,,,,,,0,106,106,106,,,,,,,,,,,,,,,,,,,,,,,,,,,,,,,,,,,,,,,,,,,,,,,,,,,,,,,,,,,,,,,,,,,,,,,,,,,,,,,,,,,,,,,,,,,,,2038.6819049983305,None,2039.1826486171121,None,2039.1826486171121,None,left,0,0.7710148079077044,2039.1826486171121,None,,,,,,,,,,,,,2039.9630268956826,None,,,,,,,,,,,,,,,,,,,,,,,,,,,,,,,,,2027.6906430402123,None,2027.6906430402123,None,2028.1907352508651,None,2038.1924598306332,2038.1924598306332,0.009875071403257607,None,2038.1924598306332,2038.1924598306332,2041.4629796196814,None,2041.4629796196814,None,None,0.007980824033438694,None,,NENA_030,001,2021_Feb_27_1034,test7,3.2.4,99.98944900721055,
170,108,Jordgubben lyser helt rött bland de gröna bladen. ,4,,0,,inc,1,no,172,199,,,,,,,,,,,,,0,107,107,107,,,,,,,,,,,,,,,,,,,,,,,,,,,,,,,,,,,,,,,,,,,,,,,,,,,,,,,,,,,,,,,,,,,,,,,,,,,,,,,,,,,,,,,,,,,,,2046.96337136261,None,2047.4640829081218,None,2047.4640829081218,None,left,0,1.8732496413404078,2047.4640829081218,None,,,,,,,,,,,,,2049.354104624933,None,,,,,,,,,,,,,,,,,,,,,,,,,,,,,,,,,2041.4730198042826,None,2041.4730198042826,None,2041.9731100905392,None,2046.4739008570295,2046.4739008570295,0.00987026041275385,None,2046.4739008570295,2046.4739008570295,2050.8546388373306,None,2050.8546388373306,None,None,0.008341969061802956,None,,NENA_030,001,2021_Feb_27_1034,test7,3.2.4,99.98944900721055,
