trig_exp,trig_item,sentence,trig_w1,trig1,trig_w2,trig2,gram,task,paus,trig_1,trig_2,prac_trials.thisRepN,prac_trials.thisTrialN,prac_trials.thisN,prac_trials.thisIndex,trials_2.thisRepN,trials_2.thisTrialN,trials_2.thisN,trials_2.thisIndex,trials.thisRepN,trials.thisTrialN,trials.thisN,trials.thisIndex,exp_trials.thisRepN,exp_trials.thisTrialN,exp_trials.thisN,exp_trials.thisIndex,grating_1.started,grating_1.stopped,text_1.started,text_1.stopped,key_resp_1.keys,key_resp_1.rt,key_resp_1.started,key_resp_1.stopped,grating_2.started,grating_2.stopped,text_2.started,text_2.stopped,key_resp_2.keys,key_resp_2.rt,key_resp_2.started,key_resp_2.stopped,grating_3.started,grating_3.stopped,text_3.started,text_3.stopped,key_resp_3.keys,key_resp_3.rt,key_resp_3.started,key_resp_3.stopped,grating_4.started,grating_4.stopped,text_4.started,text_4.stopped,key_resp_4.keys,key_resp_4.rt,key_resp_4.started,key_resp_4.stopped,grating_5.started,grating_5.stopped,text_5.started,text_5.stopped,key_resp_5.keys,key_resp_5.rt,key_resp_5.started,key_resp_5.stopped,grating_6.started,grating_6.stopped,text_6.started,text_6.stopped,key_resp_6.keys,key_resp_6.rt,key_resp_6.started,key_resp_6.stopped,grating_7.started,grating_7.stopped,text_7.started,text_7.stopped,key_resp_7.keys,key_resp_7.rt,key_resp_7.started,key_resp_7.stopped,grating_8.started,grating_8.stopped,text_8.started,text_8.stopped,key_resp_8.keys,key_resp_8.rt,key_resp_8.started,key_resp_8.stopped,grating_9.started,grating_9.stopped,text_9.started,text_9.stopped,key_resp_9.keys,key_resp_9.rt,key_resp_9.started,key_resp_9.stopped,grating.started,grating.stopped,text.started,text.stopped,key_resp.keys,key_resp.rt,key_resp.started,key_resp.stopped,grating_14.started,grating_14.stopped,text_fix_4.started,text_fix_4.stopped,grating_16.started,grating_16.stopped,grating_40.started,grating_40.stopped,ISI_4.started,ISI_4.stopped,text_19.started,text_19.stopped,grating_24.started,grating_24.stopped,grating_35.started,grating_35.stopped,prompt.started,prompt.stopped,Button_Press.keys,Button_Press.corr,Button_Press.rt,Button_Press.started,Button_Press.stopped,grating_33.started,grating_33.stopped,grating_34.started,grating_34.stopped,Correct_Incorrect.started,Correct_Incorrect.stopped,Continue_text.started,Continue_text.stopped,Press_Bar.keys,Press_Bar.rt,Press_Bar.started,Press_Bar.stopped,grating_26.started,grating_26.stopped,grating_27.started,grating_27.stopped,text_10.started,text_10.stopped,key_resp_11.keys,key_resp_11.rt,key_resp_11.started,key_resp_11.stopped,grating_28.started,grating_28.stopped,text_11.started,text_11.stopped,key_resp_12.keys,key_resp_12.rt,key_resp_12.started,key_resp_12.stopped,grating_29.started,grating_29.stopped,text_12.started,text_12.stopped,key_resp_13.keys,key_resp_13.rt,key_resp_13.started,key_resp_13.stopped,grating_36.started,grating_36.stopped,text_14.started,text_14.stopped,key_resp_14.keys,key_resp_14.rt,key_resp_14.started,key_resp_14.stopped,grating_10.started,grating_10.stopped,text_fix.started,text_fix.stopped,grating_11.started,grating_11.stopped,grating_37.started,grating_37.stopped,ISI_2.started,ISI_2.stopped,text_15.started,text_15.stopped,grating_38.started,grating_38.stopped,text_fix_3.started,text_fix_3.stopped,key_resp_16.keys,key_resp_16.started,key_resp_16.stopped,key_resp_16.rt,participant,session,date,expName,psychopyVersion,frameRate,
,,,,,,,,,,,,,,,,,,,,,,,,,,,,16.33355635298085,None,16.33355635298085,None,space,2.5132217721916277,16.33355635298085,None,,,,,,,,,,,,,,,,,,,,,,,,,,,,,,,,,,,,,,,,,,,,,,,,,,,,,,,,,,,,,,,,,,,,,,,,,,,,,,,,,,,,,,,,,,,,,,,,,,,,,,,,,,,,,,,,,,,,,,,,,,,,,,,,,,,,,,,,,,,,,,,,,,,,,,,,,,,,,,,,,,NENA_004,001,2020_Sep_08_1308,test7,3.2.4,100.03439491270947,
,,,,,,,,,,,,,,,,,,,,,,,,,,,,,,,,,,,,18.864287519581012,None,18.864287519581012,None,space,3.4304871493213795,18.864287519581012,None,,,,,,,,,,,,,,,,,,,,,,,,,,,,,,,,,,,,,,,,,,,,,,,,,,,,,,,,,,,,,,,,,,,,,,,,,,,,,,,,,,,,,,,,,,,,,,,,,,,,,,,,,,,,,,,,,,,,,,,,,,,,,,,,,,,,,,,,,,,,,,,,,,,,,,,,,,NENA_004,001,2020_Sep_08_1308,test7,3.2.4,100.03439491270947,
,,,,,,,,,,,,,,,,,,,,,,,,,,,,,,,,,,,,,,,,,,,,22.304921528302657,None,22.304921528302657,None,space,8.213684789204763,22.304921528302657,None,,,,,,,,,,,,,,,,,,,,,,,,,,,,,,,,,,,,,,,,,,,,,,,,,,,,,,,,,,,,,,,,,,,,,,,,,,,,,,,,,,,,,,,,,,,,,,,,,,,,,,,,,,,,,,,,,,,,,,,,,,,,,,,,,,,,,,,,,,,,,,,,,,NENA_004,001,2020_Sep_08_1308,test7,3.2.4,100.03439491270947,
,,,,,,,,,,,,,,,,,,,,,,,,,,,,,,,,,,,,,,,,,,,,,,,,,,,,30.53646435384826,None,30.53646435384826,None,space,5.3741357721378336,30.53646435384826,None,,,,,,,,,,,,,,,,,,,,,,,,,,,,,,,,,,,,,,,,,,,,,,,,,,,,,,,,,,,,,,,,,,,,,,,,,,,,,,,,,,,,,,,,,,,,,,,,,,,,,,,,,,,,,,,,,,,,,,,,,,,,,,,,,,,,,,,,,,NENA_004,001,2020_Sep_08_1308,test7,3.2.4,100.03439491270947,
,,,,,,,,,,,,,,,,,,,,,,,,,,,,,,,,,,,,,,,,,,,,,,,,,,,,,,,,,,,,35.92752545695521,None,35.92752545695521,None,space,5.623007096002311,35.92752545695521,None,,,,,,,,,,,,,,,,,,,,,,,,,,,,,,,,,,,,,,,,,,,,,,,,,,,,,,,,,,,,,,,,,,,,,,,,,,,,,,,,,,,,,,,,,,,,,,,,,,,,,,,,,,,,,,,,,,,,,,,,,,,,,,,,,,NENA_004,001,2020_Sep_08_1308,test7,3.2.4,100.03439491270947,
,,,,,,,,,,,,,,,,,,,,,,,,,,,,,,,,,,,,,,,,,,,,,,,,,,,,,,,,,,,,,,,,,,,,41.56858591858645,None,41.56858591858645,None,space,9.66988612526984,41.56858591858645,None,,,,,,,,,,,,,,,,,,,,,,,,,,,,,,,,,,,,,,,,,,,,,,,,,,,,,,,,,,,,,,,,,,,,,,,,,,,,,,,,,,,,,,,,,,,,,,,,,,,,,,,,,,,,,,,,,,,,,,,,,,NENA_004,001,2020_Sep_08_1308,test7,3.2.4,100.03439491270947,
,,,,,,,,,,,,,,,,,,,,,,,,,,,,,,,,,,,,,,,,,,,,,,,,,,,,,,,,,,,,,,,,,,,,,,,,,,,,51.25036692398362,None,51.25036692398362,None,space,2.5801963043313663,51.25036692398362,None,,,,,,,,,,,,,,,,,,,,,,,,,,,,,,,,,,,,,,,,,,,,,,,,,,,,,,,,,,,,,,,,,,,,,,,,,,,,,,,,,,,,,,,,,,,,,,,,,,,,,,,,,,,,,,,,,,NENA_004,001,2020_Sep_08_1308,test7,3.2.4,100.03439491270947,
,,,,,,,,,,,,,,,,,,,,,,,,,,,,,,,,,,,,,,,,,,,,,,,,,,,,,,,,,,,,,,,,,,,,,,,,,,,,,,,,,,,,53.840918246513866,None,53.840918246513866,None,space,4.285676301200965,53.840918246513866,None,,,,,,,,,,,,,,,,,,,,,,,,,,,,,,,,,,,,,,,,,,,,,,,,,,,,,,,,,,,,,,,,,,,,,,,,,,,,,,,,,,,,,,,,,,,,,,,,,,,,,,,,,,NENA_004,001,2020_Sep_08_1308,test7,3.2.4,100.03439491270947,
,,,,,,,,,,,,,,,,,,,,,,,,,,,,,,,,,,,,,,,,,,,,,,,,,,,,,,,,,,,,,,,,,,,,,,,,,,,,,,,,,,,,,,,,,,,,58.14167948548538,None,58.14167948548538,None,space,1.592688718883437,58.14167948548538,None,,,,,,,,,,,,,,,,,,,,,,,,,,,,,,,,,,,,,,,,,,,,,,,,,,,,,,,,,,,,,,,,,,,,,,,,,,,,,,,,,,,,,,,,,,,,,,,,,,NENA_004,001,2020_Sep_08_1308,test7,3.2.4,100.03439491270947,
,,,,,,,,,,,,,,,,,,,,,,,,,,,,,,,,,,,,,,,,,,,,,,,,,,,,,,,,,,,,,,,,,,,,,,,,,,,,,,,,,,,,,,,,,,,,,,,,,,,,59.751973178626486,None,59.751973178626486,None,space,2.790400126755685,59.751973178626486,None,,,,,,,,,,,,,,,,,,,,,,,,,,,,,,,,,,,,,,,,,,,,,,,,,,,,,,,,,,,,,,,,,,,,,,,,,,,,,,,,,,,,,,,,,,NENA_004,001,2020_Sep_08_1308,test7,3.2.4,100.03439491270947,
199,1,Meningarna presenteras ord för ord.,99,99,99,99,cor,1,no,,,0,0,0,0,0,0,0,0,0,0,0,0,,,,,,,,,,,,,,,,,,,,,,,,,,,,,,,,,,,,,,,,,,,,,,,,,,,,,,,,,,,,,,,,,,,,,,,,,,,,,,,,,,,,,62.61189449524227,None,62.61189449524227,None,63.06264842139308,None,66.07304321107222,66.07304321107222,0.00989989133358904,None,66.07304321107222,66.07304321107222,66.56263911999804,None,67.07318241125495,None,67.07318241125495,None,left,1,1.1091576400372105,67.07318241125495,None,68.19458934663135,None,68.52336061314782,None,68.52336061314782,None,68.52336061314782,None,space,1.7389986952389336,68.52336061314782,None,,,,,,,,,,,,,,,,,,,,,,,,,,,,,,,,,,,,,,,,,,,,,,,,,,,,,,,NENA_004,001,2020_Sep_08_1308,test7,3.2.4,100.03439491270947,
199,1,Meningarna presenteras ord för ord.,99,99,99,99,cor,1,no,,,0,0,0,0,0,0,0,0,,,,,,,,,,,,,,,,,,,,,,,,,,,,,,,,,,,,,,,,,,,,,,,,,,,,,,,,,,,,,,,,,,,,,,,,,,,,,,,,,,,,,,,,,,,,,,,,,,,,,,,,,,,,,,,,,,,,,,,,,,,,,,,,,,,,,,,,,,,,,,,,,,,,,,,,,,,,,,,,,,,,,,,,,,,,,,,,,,NENA_004,001,2020_Sep_08_1308,test7,3.2.4,100.03439491270947,
199,1,Meningarna presenteras ord för ord.,99,99,99,99,cor,1,no,,,0,0,0,0,,,,,,,,,,,,,,,,,,,,,,,,,,,,,,,,,,,,,,,,,,,,,,,,,,,,,,,,,,,,,,,,,,,,,,,,,,,,,,,,,,,,,,,,,,,,,,,,,,,,,,,,,,,,,,,,,,,,,,,,,,,,,,,,70.28400621974652,None,,,,,,,,,,,,,,,,,,,,,,,,,,,,,,,,,,,,,,,,,,,,,,,,,,,,,NENA_004,001,2020_Sep_08_1308,test7,3.2.4,100.03439491270947,
199,2,Läs meningen noggrant och ange ditt svar när du ser frågetecknet.,99,99,99,99,cor,1,no,,,0,1,1,1,0,0,0,0,0,0,0,0,,,,,,,,,,,,,,,,,,,,,,,,,,,,,,,,,,,,,,,,,,,,,,,,,,,,,,,,,,,,,,,,,,,,,,,,,,,,,,,,,,,,,71.78428526158723,None,71.78428526158723,None,72.28378908029072,None,78.26553557430634,78.26553557430634,0.009898608383082319,None,78.26553557430634,78.26553557430634,78.75494321017413,None,79.25568026551946,None,79.25568026551946,None,left,1,1.6944940875205248,79.25568026551946,None,80.96688382750472,None,81.26594611862402,None,81.26594611862402,None,81.26594611862402,None,space,1.7641932868305048,81.26594611862402,None,,,,,,,,,,,,,,,,,,,,,,,,,,,,,,,,,,,,,,,,,,,,,,,,,,,,,,,NENA_004,001,2020_Sep_08_1308,test7,3.2.4,100.03439491270947,
199,2,Läs meningen noggrant och ange ditt svar när du ser frågetecknet.,99,99,99,99,cor,1,no,,,0,1,1,1,0,0,0,0,,,,,,,,,,,,,,,,,,,,,,,,,,,,,,,,,,,,,,,,,,,,,,,,,,,,,,,,,,,,,,,,,,,,,,,,,,,,,,,,,,,,,,,,,,,,,,,,,,,,,,,,,,,,,,,,,,,,,,,,,,,,,,,,,,,,,,,,,,,,,,,,,,,,,,,,,,,,,,,,,,,,,,,,,,,,,,,,,,NENA_004,001,2020_Sep_08_1308,test7,3.2.4,100.03439491270947,
199,2,Läs meningen noggrant och ange ditt svar när du ser frågetecknet.,99,99,99,99,cor,1,no,,,0,1,1,1,,,,,,,,,,,,,,,,,,,,,,,,,,,,,,,,,,,,,,,,,,,,,,,,,,,,,,,,,,,,,,,,,,,,,,,,,,,,,,,,,,,,,,,,,,,,,,,,,,,,,,,,,,,,,,,,,,,,,,,,,,,,,,,,83.05642418465231,None,,,,,,,,,,,,,,,,,,,,,,,,,,,,,,,,,,,,,,,,,,,,,,,,,,,,,NENA_004,001,2020_Sep_08_1308,test7,3.2.4,100.03439491270947,
199,3,I den här meningen finns det en misstag.,99,99,99,99,inc,1,no,,,0,2,2,2,0,0,0,0,0,0,0,0,,,,,,,,,,,,,,,,,,,,,,,,,,,,,,,,,,,,,,,,,,,,,,,,,,,,,,,,,,,,,,,,,,,,,,,,,,,,,,,,,,,,,84.55671733895451,None,84.55671733895451,None,85.05678533535684,None,89.55765613834319,89.55765613834319,0.009908551252920006,None,89.55765613834319,89.55765613834319,90.04708333921326,None,90.54755803108083,None,90.54755803108083,None,left,0,1.8585767839754226,90.54755803108083,None,92.42819996843946,None,92.73856120895016,None,92.73856120895016,None,92.73856120895016,None,space,5.155664292779875,92.73856120895016,None,,,,,,,,,,,,,,,,,,,,,,,,,,,,,,,,,,,,,,,,,,,,,,,,,,,,,,,NENA_004,001,2020_Sep_08_1308,test7,3.2.4,100.03439491270947,
199,3,I den här meningen finns det en misstag.,99,99,99,99,inc,1,no,,,0,2,2,2,0,0,0,0,,,,,,,,,,,,,,,,,,,,,,,,,,,,,,,,,,,,,,,,,,,,,,,,,,,,,,,,,,,,,,,,,,,,,,,,,,,,,,,,,,,,,,,,,,,,,,,,,,,,,,,,,,,,,,,,,,,,,,,,,,,,,,,,,,,,,,,,,,,,,,,,,,,,,,,,,,,,,,,,,,,,,,,,,,,,,,,,,,NENA_004,001,2020_Sep_08_1308,test7,3.2.4,100.03439491270947,
199,3,I den här meningen finns det en misstag.,99,99,99,99,inc,1,no,,,0,2,2,2,,,,,,,,,,,,,,,,,,,,,,,,,,,,,,,,,,,,,,,,,,,,,,,,,,,,,,,,,,,,,,,,,,,,,,,,,,,,,,,,,,,,,,,,,,,,,,,,,,,,,,,,,,,,,,,,,,,,,,,,,,,,,,,,97.91923534837906,None,,,,,,,,,,,,,,,,,,,,,,,,,,,,,,,,,,,,,,,,,,,,,,,,,,,,,NENA_004,001,2020_Sep_08_1308,test7,3.2.4,100.03439491270947,
199,4,I det här meningen finns det ett till misstag.,99,99,99,99,inc,1,no,,,0,3,3,3,0,0,0,0,0,0,0,0,,,,,,,,,,,,,,,,,,,,,,,,,,,,,,,,,,,,,,,,,,,,,,,,,,,,,,,,,,,,,,,,,,,,,,,,,,,,,,,,,,,,,99.41953074784487,None,99.41953074784487,None,99.91962279957852,None,104.92055325978617,104.92055325978617,0.00990887199077406,None,104.92055325978617,104.92055325978617,105.40997853623003,None,105.91074221280815,None,105.91074221280815,None,right,1,0.671228733483531,105.91074221280815,None,106.60056250986281,None,106.92098433131969,None,106.92098433131969,None,106.92098433131969,None,space,2.1409725794883343,106.92098433131969,None,,,,,,,,,,,,,,,,,,,,,,,,,,,,,,,,,,,,,,,,,,,,,,,,,,,,,,,NENA_004,001,2020_Sep_08_1308,test7,3.2.4,100.03439491270947,
199,4,I det här meningen finns det ett till misstag.,99,99,99,99,inc,1,no,,,0,3,3,3,0,0,0,0,,,,,,,,,,,,,,,,,,,,,,,,,,,,,,,,,,,,,,,,,,,,,,,,,,,,,,,,,,,,,,,,,,,,,,,,,,,,,,,,,,,,,,,,,,,,,,,,,,,,,,,,,,,,,,,,,,,,,,,,,,,,,,,,,,,,,,,,,,,,,,,,,,,,,,,,,,,,,,,,,,,,,,,,,,,,,,,,,,NENA_004,001,2020_Sep_08_1308,test7,3.2.4,100.03439491270947,
199,4,I det här meningen finns det ett till misstag.,99,99,99,99,inc,1,no,,,0,3,3,3,,,,,,,,,,,,,,,,,,,,,,,,,,,,,,,,,,,,,,,,,,,,,,,,,,,,,,,,,,,,,,,,,,,,,,,,,,,,,,,,,,,,,,,,,,,,,,,,,,,,,,,,,,,,,,,,,,,,,,,,,,,,,,,,109.08133845145221,None,,,,,,,,,,,,,,,,,,,,,,,,,,,,,,,,,,,,,,,,,,,,,,,,,,,,,NENA_004,001,2020_Sep_08_1308,test7,3.2.4,100.03439491270947,
199,5,Ibland kan meningarna låta lite märkliga men ändå vara grammatiskt korrekta.,99,99,99,99,cor,1,no,,,0,4,4,4,0,0,0,0,0,0,0,0,,,,,,,,,,,,,,,,,,,,,,,,,,,,,,,,,,,,,,,,,,,,,,,,,,,,,,,,,,,,,,,,,,,,,,,,,,,,,,,,,,,,,110.58164283157521,None,110.58164283157521,None,111.08171499756872,None,117.08284078706492,117.08284078706492,0.00990374018692819,None,117.08284078706492,117.08284078706492,117.57226638424618,None,118.07297168655441,None,118.07297168655441,None,left,1,0.10087330474061673,118.07297168655441,None,118.1929571122314,None,118.49310157251284,None,118.49310157251284,None,118.49310157251284,None,space,4.7287472753328075,118.49310157251284,None,,,,,,,,,,,,,,,,,,,,,,,,,,,,,,,,,,,,,,,,,,,,,,,,,,,,,,,NENA_004,001,2020_Sep_08_1308,test7,3.2.4,100.03439491270947,
199,5,Ibland kan meningarna låta lite märkliga men ändå vara grammatiskt korrekta.,99,99,99,99,cor,1,no,,,0,4,4,4,0,0,0,0,,,,,,,,,,,,,,,,,,,,,,,,,,,,,,,,,,,,,,,,,,,,,,,,,,,,,,,,,,,,,,,,,,,,,,,,,,,,,,,,,,,,,,,,,,,,,,,,,,,,,,,,,,,,,,,,,,,,,,,,,,,,,,,,,,,,,,,,,,,,,,,,,,,,,,,,,,,,,,,,,,,,,,,,,,,,,,,,,,NENA_004,001,2020_Sep_08_1308,test7,3.2.4,100.03439491270947,
199,5,Ibland kan meningarna låta lite märkliga men ändå vara grammatiskt korrekta.,99,99,99,99,cor,1,no,,,0,4,4,4,,,,,,,,,,,,,,,,,,,,,,,,,,,,,,,,,,,,,,,,,,,,,,,,,,,,,,,,,,,,,,,,,,,,,,,,,,,,,,,,,,,,,,,,,,,,,,,,,,,,,,,,,,,,,,,,,,,,,,,,,,,,,,,,123.23459785259638,None,,,,,,,,,,,,,,,,,,,,,,,,,,,,,,,,,,,,,,,,,,,,,,,,,,,,,NENA_004,001,2020_Sep_08_1308,test7,3.2.4,100.03439491270947,
199,6,De gröna idéerna missade bussen i morse.,99,99,99,99,cor,1,no,,,0,5,5,5,0,0,0,0,0,0,0,0,,,,,,,,,,,,,,,,,,,,,,,,,,,,,,,,,,,,,,,,,,,,,,,,,,,,,,,,,,,,,,,,,,,,,,,,,,,,,,,,,,,,,124.7342684549294,None,124.7342684549294,None,125.23438135461674,None,129.23516523767285,129.23516523767285,0.009899570596189733,None,129.23516523767285,129.23516523767285,129.72457704313138,None,130.22529196757205,None,130.22529196757205,None,left,1,1.2924089072721472,130.22529196757205,None,131.53580235113577,None,131.83536338945396,None,131.83536338945396,None,131.83536338945396,None,space,0.9622719394242267,131.83536338945396,None,,,,,,,,,,,,,,,,,,,,,,,,,,,,,,,,,,,,,,,,,,,,,,,,,,,,,,,NENA_004,001,2020_Sep_08_1308,test7,3.2.4,100.03439491270947,
199,6,De gröna idéerna missade bussen i morse.,99,99,99,99,cor,1,no,,,0,5,5,5,0,0,0,0,,,,,,,,,,,,,,,,,,,,,,,,,,,,,,,,,,,,,,,,,,,,,,,,,,,,,,,,,,,,,,,,,,,,,,,,,,,,,,,,,,,,,,,,,,,,,,,,,,,,,,,,,,,,,,,,,,,,,,,,,,,,,,,,,,,,,,,,,,,,,,,,,,,,,,,,,,,,,,,,,,,,,,,,,,,,,,,,,,NENA_004,001,2020_Sep_08_1308,test7,3.2.4,100.03439491270947,
199,6,De gröna idéerna missade bussen i morse.,99,99,99,99,cor,1,no,,,0,5,5,5,,,,,,,,,,,,,,,,,,,,,,,,,,,,,,,,,,,,,,,,,,,,,,,,,,,,,,,,,,,,,,,,,,,,,,,,,,,,,,,,,,,,,,,,,,,,,,,,,,,,,,,,,,,,,,,,,,,,,,,,,,,,,,,,132.8156579036836,None,,,,,,,,,,,,,,,,,,,,,,,,,,,,,,,,,,,,,,,,,,,,,,,,,,,,,NENA_004,001,2020_Sep_08_1308,test7,3.2.4,100.03439491270947,
199,7,Det bruna bordet är mer än hundra år gamla.,99,99,99,99,inc,1,no,,,0,6,6,6,0,0,0,0,0,0,0,0,,,,,,,,,,,,,,,,,,,,,,,,,,,,,,,,,,,,,,,,,,,,,,,,,,,,,,,,,,,,,,,,,,,,,,,,,,,,,,,,,,,,,134.3161261807959,None,134.3161261807959,None,134.81622304359598,None,139.81714773052363,139.81714773052363,0.009907589039812592,None,139.81714773052363,139.81714773052363,140.30657781803393,None,140.80733604207035,None,140.80733604207035,None,right,1,1.2863530578497375,140.80733604207035,None,142.1175830999432,None,142.41732182697342,None,142.41732182697342,None,142.41732182697342,None,space,1.5323348553406504,142.41732182697342,None,,,,,,,,,,,,,,,,,,,,,,,,,,,,,,,,,,,,,,,,,,,,,,,,,,,,,,,NENA_004,001,2020_Sep_08_1308,test7,3.2.4,100.03439491270947,
199,7,Det bruna bordet är mer än hundra år gamla.,99,99,99,99,inc,1,no,,,0,6,6,6,0,0,0,0,,,,,,,,,,,,,,,,,,,,,,,,,,,,,,,,,,,,,,,,,,,,,,,,,,,,,,,,,,,,,,,,,,,,,,,,,,,,,,,,,,,,,,,,,,,,,,,,,,,,,,,,,,,,,,,,,,,,,,,,,,,,,,,,,,,,,,,,,,,,,,,,,,,,,,,,,,,,,,,,,,,,,,,,,,,,,,,,,,NENA_004,001,2020_Sep_08_1308,test7,3.2.4,100.03439491270947,
199,7,Det bruna bordet är mer än hundra år gamla.,99,99,99,99,inc,1,no,,,0,6,6,6,,,,,,,,,,,,,,,,,,,,,,,,,,,,,,,,,,,,,,,,,,,,,,,,,,,,,,,,,,,,,,,,,,,,,,,,,,,,,,,,,,,,,,,,,,,,,,,,,,,,,,,,,,,,,,,,,,,,,,,,,,,,,,,,143.9779528079307,None,,,,,,,,,,,,,,,,,,,,,,,,,,,,,,,,,,,,,,,,,,,,,,,,,,,,,NENA_004,001,2020_Sep_08_1308,test7,3.2.4,100.03439491270947,
199,8,På våren gilla alla att tillbringa tid i solen.,99,99,99,99,inc,1,no,,,0,7,7,7,0,0,0,0,0,0,0,0,,,,,,,,,,,,,,,,,,,,,,,,,,,,,,,,,,,,,,,,,,,,,,,,,,,,,,,,,,,,,,,,,,,,,,,,,,,,,,,,,,,,,145.47822062395016,None,145.47822062395016,None,145.97828958256605,None,150.97930824565447,150.97930824565447,0.00990983420433622,None,150.97930824565447,150.97930824565447,151.46866969528628,None,151.9693586399694,None,151.9693586399694,None,right,1,1.036157728561193,151.9693586399694,None,153.02025523027032,None,153.31949905895544,None,153.31949905895544,None,153.31949905895544,None,space,1.0462215168845432,153.31949905895544,None,,,,,,,,,,,,,,,,,,,,,,,,,,,,,,,,,,,,,,,,,,,,,,,,,,,,,,,NENA_004,001,2020_Sep_08_1308,test7,3.2.4,100.03439491270947,
199,8,På våren gilla alla att tillbringa tid i solen.,99,99,99,99,inc,1,no,,,0,7,7,7,0,0,0,0,,,,,,,,,,,,,,,,,,,,,,,,,,,,,,,,,,,,,,,,,,,,,,,,,,,,,,,,,,,,,,,,,,,,,,,,,,,,,,,,,,,,,,,,,,,,,,,,,,,,,,,,,,,,,,,,,,,,,,,,,,,,,,,,,,,,,,,,,,,,,,,,,,,,,,,,,,,,,,,,,,,,,,,,,,,,,,,,,,NENA_004,001,2020_Sep_08_1308,test7,3.2.4,100.03439491270947,
199,8,På våren gilla alla att tillbringa tid i solen.,99,99,99,99,inc,1,no,,,0,7,7,7,,,,,,,,,,,,,,,,,,,,,,,,,,,,,,,,,,,,,,,,,,,,,,,,,,,,,,,,,,,,,,,,,,,,,,,,,,,,,,,,,,,,,,,,,,,,,,,,,,,,,,,,,,,,,,,,,,,,,,,,,,,,,,,,154.3899128619687,None,,,,,,,,,,,,,,,,,,,,,,,,,,,,,,,,,,,,,,,,,,,,,,,,,,,,,NENA_004,001,2020_Sep_08_1308,test7,3.2.4,100.03439491270947,
199,9,Tidningen avskedade dem journalist som publicerade falska fakta.,99,99,99,99,inc,1,no,,,0,8,8,8,0,0,0,0,0,0,0,0,,,,,,,,,,,,,,,,,,,,,,,,,,,,,,,,,,,,,,,,,,,,,,,,,,,,,,,,,,,,,,,,,,,,,,,,,,,,,,,,,,,,,155.89019607340015,None,155.89019607340015,None,156.39027914447706,None,160.89112460918113,160.89112460918113,0.009904060924782243,None,160.89112460918113,160.89112460918113,161.38055597964194,None,161.88133665532087,None,161.88133665532087,None,right,1,1.5562339871680706,161.88133665532087,None,163.46159967310405,None,163.7613595688258,None,163.7613595688258,None,163.7613595688258,None,space,0.9080977300750419,163.7613595688258,None,,,,,,,,,,,,,,,,,,,,,,,,,,,,,,,,,,,,,,,,,,,,,,,,,,,,,,,NENA_004,001,2020_Sep_08_1308,test7,3.2.4,100.03439491270947,
199,9,Tidningen avskedade dem journalist som publicerade falska fakta.,99,99,99,99,inc,1,no,,,0,8,8,8,0,0,0,0,,,,,,,,,,,,,,,,,,,,,,,,,,,,,,,,,,,,,,,,,,,,,,,,,,,,,,,,,,,,,,,,,,,,,,,,,,,,,,,,,,,,,,,,,,,,,,,,,,,,,,,,,,,,,,,,,,,,,,,,,,,,,,,,,,,,,,,,,,,,,,,,,,,,,,,,,,,,,,,,,,,,,,,,,,,,,,,,,,NENA_004,001,2020_Sep_08_1308,test7,3.2.4,100.03439491270947,
199,9,Tidningen avskedade dem journalist som publicerade falska fakta.,99,99,99,99,inc,1,no,,,0,8,8,8,,,,,,,,,,,,,,,,,,,,,,,,,,,,,,,,,,,,,,,,,,,,,,,,,,,,,,,,,,,,,,,,,,,,,,,,,,,,,,,,,,,,,,,,,,,,,,,,,,,,,,,,,,,,,,,,,,,,,,,,,,,,,,,,164.69184896331126,None,,,,,,,,,,,,,,,,,,,,,,,,,,,,,,,,,,,,,,,,,,,,,,,,,,,,,NENA_004,001,2020_Sep_08_1308,test7,3.2.4,100.03439491270947,
199,10,Bra jobbat!,99,99,99,99,cor,1,no,,,0,9,9,9,0,0,0,0,0,0,0,0,,,,,,,,,,,,,,,,,,,,,,,,,,,,,,,,,,,,,,,,,,,,,,,,,,,,,,,,,,,,,,,,,,,,,,,,,,,,,,,,,,,,,166.1921241562991,None,166.1921241562991,None,166.69222390573896,None,168.19250904159708,168.19250904159708,0.009909513466482167,None,168.19250904159708,168.19250904159708,168.6819410535336,None,169.18270473011216,None,169.18270473011216,None,left,1,1.3025862367580885,169.18270473011216,None,170.5026117674829,None,170.80316420618055,None,170.80316420618055,None,170.80316420618055,None,space,1.3701150037268235,170.80316420618055,None,,,,,,,,,,,,,,,,,,,,,,,,,,,,,,,,,,,,,,,,,,,,,,,,,,,,,,,NENA_004,001,2020_Sep_08_1308,test7,3.2.4,100.03439491270947,
199,10,Bra jobbat!,99,99,99,99,cor,1,no,,,0,9,9,9,0,0,0,0,,,,,,,,,,,,,,,,,,,,,,,,,,,,,,,,,,,,,,,,,,,,,,,,,,,,,,,,,,,,,,,,,,,,,,,,,,,,,,,,,,,,,,,,,,,,,,,,,,,,,,,,,,,,,,,,,,,,,,,,,,,,,,,,,,,,,,,,,,,,,,,,,,,,,,,,,,,,,,,,,,,,,,,,,,,,,,,,,,NENA_004,001,2020_Sep_08_1308,test7,3.2.4,100.03439491270947,
199,10,Bra jobbat!,99,99,99,99,cor,1,no,,,0,9,9,9,,,,,,,,,,,,,,,,,,,,,,,,,,,,,,,,,,,,,,,,,,,,,,,,,,,,,,,,,,,,,,,,,,,,,,,,,,,,,,,,,,,,,,,,,,,,,,,,,,,,,,,,,,,,,,,,,,,,,,,,,,,,,,,,172.18391262847126,None,,,,,,,,,,,,,,,,,,,,,,,,,,,,,,,,,,,,,,,,,,,,,,,,,,,,,NENA_004,001,2020_Sep_08_1308,test7,3.2.4,100.03439491270947,
,,,,,,,,,,,,,,,,,,,,,,,,,,,,,,,,,,,,,,,,,,,,,,,,,,,,,,,,,,,,,,,,,,,,,,,,,,,,,,,,,,,,,,,,,,,,,,,,,,,,,,,,,,,,,,,,,,,,,,,,,,,,,,,,,,,,,,,,,,,,,,,,,173.68356109989963,None,173.68356109989963,None,space,19.51339625352648,173.68356109989963,None,,,,,,,,,,,,,,,,,,,,,,,,,,,,,,,,,,,,,,,,,,,,,NENA_004,001,2020_Sep_08_1308,test7,3.2.4,100.03439491270947,
,,,,,,,,,,,,,,,,,,,,,,,,,,,,,,,,,,,,,,,,,,,,,,,,,,,,,,,,,,,,,,,,,,,,,,,,,,,,,,,,,,,,,,,,,,,,,,,,,,,,,,,,,,,,,,,,,,,,,,,,,,,,,,,,,,,,,,,,,,,,,,,,,,,,,,,,,193.21661216263192,None,193.21661216263192,None,space,50.32412570097222,193.21661216263192,None,,,,,,,,,,,,,,,,,,,,,,,,,,,,,,,,,,,,,NENA_004,001,2020_Sep_08_1308,test7,3.2.4,100.03439491270947,
,,,,,,,,,,,,,,,,,,,,,,,,,,,,,,,,,,,,,,,,,,,,,,,,,,,,,,,,,,,,,,,,,,,,,,,,,,,,,,,,,,,,,,,,,,,,,,,,,,,,,,,,,,,,,,,,,,,,,,,,,,,,,,,,,,,,,,,,,,,,,,,,,,,,,,,,,,,,,,,,,243.55669745321393,None,243.55669745321393,None,space,9.99188052390582,243.55669745321393,None,,,,,,,,,,,,,,,,,,,,,,,,,,,,,NENA_004,001,2020_Sep_08_1308,test7,3.2.4,100.03439491270947,
,,,,,,,,,,,,,,,,,,,,,,,,,,,,,,,,,,,,,,,,,,,,,,,,,,,,,,,,,,,,,,,,,,,,,,,,,,,,,,,,,,,,,,,,,,,,,,,,,,,,,,,,,,,,,,,,,,,,,,,,,,,,,,,,,,,,,,,,,,,,,,,,,,,,,,,,,,,,,,,,,,,,,,,,,253.55831429220234,None,253.55831429220234,None,space,2.798290916834958,253.55831429220234,None,,,,,,,,,,,,,,,,,,,,,NENA_004,001,2020_Sep_08_1308,test7,3.2.4,100.03439491270947,
170,108,Hallonet lyser helt röd bland de gröna bladen. ,4,,0,,inc,1,no,174,199,,,,,,,,,,,,,0,0,0,0,,,,,,,,,,,,,,,,,,,,,,,,,,,,,,,,,,,,,,,,,,,,,,,,,,,,,,,,,,,,,,,,,,,,,,,,,,,,,,,,,,,,,,,,,,,,,261.8695485808639,None,262.37031931367255,None,262.37031931367255,None,right,1,1.410165847074495,262.37031931367255,None,,,,,,,,,,,,,263.8005976627196,None,,,,,,,,,,,,,,,,,,,,,,,,,,,,,,,,,256.46852889141473,None,256.46852889141473,None,256.8792788019291,None,261.3801422279471,261.3801422279471,0.00986461018146656,None,261.3801422279471,261.3801422279471,265.3008536114427,None,265.3008536114427,None,None,0.00807393133345613,None,,NENA_004,001,2020_Sep_08_1308,test7,3.2.4,100.03439491270947,
170,67,Valet är absolut nödvändigt för landets framtid.  ,4,,0,,cor,1,no,173,199,,,,,,,,,,,,,0,1,1,1,,,,,,,,,,,,,,,,,,,,,,,,,,,,,,,,,,,,,,,,,,,,,,,,,,,,,,,,,,,,,,,,,,,,,,,,,,,,,,,,,,,,,,,,,,,,,270.3011432376293,None,270.8017070945907,None,270.8017070945907,None,left,1,1.5626336674567938,270.8017070945907,None,,,,,,,,,,,,,272.3821638379736,None,,,,,,,,,,,,,,,,,,,,,,,,,,,,,,,,,265.31059056800086,None,265.31059056800086,None,265.8109635860019,None,269.8116906984769,269.8116906984769,0.009884175184652122,None,269.8116906984769,269.8116906984769,273.88249002826353,None,273.88249002826353,None,None,0.007593786925554014,None,,NENA_004,001,2020_Sep_08_1308,test7,3.2.4,100.03439491270947,
180,17,Skjortan som reseledaren inför denna speciella dag hade strukit kvällen innan var otroligt skrynklig på morgonen.  ,14,,0,,cor,1,no,181,199,,,,,,,,,,,,,0,2,2,2,,,,,,,,,,,,,,,,,,,,,,,,,,,,,,,,,,,,,,,,,,,,,,,,,,,,,,,,,,,,,,,,,,,,,,,,,,,,,,,,,,,,,,,,,,,,,283.3836171007101,None,283.8843589671219,None,283.8843589671219,None,left,1,0.06387299811513003,283.8843589671219,None,,,,,,,,,,,,,283.96416685804024,None,,,,,,,,,,,,,,,,,,,,,,,,,,,,,,,,,273.8924951215786,None,273.8924951215786,None,274.39257209863854,None,282.89420176713656,282.89420176713656,0.009882250757982547,None,282.89420176713656,282.89420176713656,285.46459279776957,None,285.46459279776957,None,None,0.008148983966748347,None,,NENA_004,001,2020_Sep_08_1308,test7,3.2.4,100.03439491270947,
130,15,Frisörer klipper ofta hår med en sax.,3,,4,,cor,1,no,131,132,,,,,,,,,,,,,0,3,3,3,,,,,,,,,,,,,,,,,,,,,,,,,,,,,,,,,,,,,,,,,,,,,,,,,,,,,,,,,,,,,,,,,,,,,,,,,,,,,,,,,,,,,,,,,,,,,290.4649555521628,None,290.9657227568564,None,290.9657227568564,None,left,1,0.8785471991254781,290.9657227568564,None,,,,,,,,,,,,,291.8557305571985,None,,,,,,,,,,,,,,,,,,,,,,,,,,,,,,,,,285.47462611600713,None,285.47462611600713,None,285.97472490323344,None,289.9755398978514,289.9755398978514,0.009879043380806252,None,289.9755398978514,289.9755398978514,293.3561552139769,None,293.3561552139769,None,None,0.008348803583885456,None,,NENA_004,001,2020_Sep_08_1308,test7,3.2.4,100.03439491270947,
150,27,Tjejen har vänner men föräldrarna borde inte veta om dem. ,6,,7,,cor,1,no,155,156,,,,,,,,,,,,,0,4,4,4,,,,,,,,,,,,,,,,,,,,,,,,,,,,,,,,,,,,,,,,,,,,,,,,,,,,,,,,,,,,,,,,,,,,,,,,,,,,,,,,,,,,,,,,,,,,,299.8567129769208,None,300.3574942940754,None,300.3574942940754,None,left,1,0.21470986704798634,300.3574942940754,None,,,,,,,,,,,,,300.58754568909217,None,,,,,,,,,,,,,,,,,,,,,,,,,,,,,,,,,293.3661311201572,None,293.3661311201572,None,293.8662587737808,None,299.3672748709673,299.3672748709673,0.009882250757982547,None,299.3672748709673,299.3672748709673,302.0878067696191,None,302.0878067696191,None,None,0.007592503973683051,None,,NENA_004,001,2020_Sep_08_1308,test7,3.2.4,100.03439491270947,
160,30,Den torra sommaren orsakade en kraftig aspblomning som de flesta invånarna i de södra stadsdelarna hade inte upplevt förut.,16,,17,,inc,1,no,163,164,,,,,,,,,,,,,0,5,5,5,,,,,,,,,,,,,,,,,,,,,,,,,,,,,,,,,,,,,,,,,,,,,,,,,,,,,,,,,,,,,,,,,,,,,,,,,,,,,,,,,,,,,,,,,,,,,313.0792180541994,None,313.5799660146281,None,313.5799660146281,None,right,1,0.1760471766738192,313.5799660146281,None,,,,,,,,,,,,,313.76982095135963,None,,,,,,,,,,,,,,,,,,,,,,,,,,,,,,,,,302.09782661687086,None,302.09782661687086,None,302.5979331018034,None,312.58981330497136,312.58981330497136,0.009885137397759536,None,312.58981330497136,312.58981330497136,315.2703055860967,None,315.2703055860967,None,None,0.008612450012606132,None,,NENA_004,001,2020_Sep_08_1308,test7,3.2.4,100.03439491270947,
160,47,Många villaägare i Stockholms skärgård anmäler inbrott av ett slag som dagens otroligt billiga och opålitliga larmsystem inte kan hindra.,18,,19,,cor,1,no,161,162,,,,,,,,,,,,,0,6,6,6,,,,,,,,,,,,,,,,,,,,,,,,,,,,,,,,,,,,,,,,,,,,,,,,,,,,,,,,,,,,,,,,,,,,,,,,,,,,,,,,,,,,,,,,,,,,,326.77179862031426,None,327.27258731443726,None,327.27258731443726,None,left,1,0.6754682450382461,327.27258731443726,None,,,,,,,,,,,,,327.9626545795577,None,,,,,,,,,,,,,,,,,,,,,,,,,,,,,,,,,315.2803190185937,None,315.2803190185937,None,315.78039952376866,None,326.2823489678017,326.2823489678017,0.009883533708489267,None,326.2823489678017,326.2823489678017,329.4629637707468,None,329.4629637707468,None,None,0.008598979027283349,None,,NENA_004,001,2020_Sep_08_1308,test7,3.2.4,100.03439491270947,
180,31,Munstycket som bara såldes i en eller två affärer i staden var otroligt dyrt och trumpetaren gick hem tomhänt.,14,,0,,cor,1,no,181,199,,,,,,,,,,,,,0,7,7,7,,,,,,,,,,,,,,,,,,,,,,,,,,,,,,,,,,,,,,,,,,,,,,,,,,,,,,,,,,,,,,,,,,,,,,,,,,,,,,,,,,,,,,,,,,,,,340.4644035624983,None,340.9651736538317,None,340.9651736538317,None,left,1,1.8065999489385831,340.9651736538317,None,,,,,,,,,,,,,342.7852147595813,None,,,,,,,,,,,,,,,,,,,,,,,,,,,,,,,,,329.472988429065,None,329.472988429065,None,329.9730820844875,None,339.9749600040027,339.9749600040027,0.009882892233235907,None,339.9749600040027,339.9749600040027,344.2858350663861,None,344.2858350663861,None,None,0.007622974059358967,None,,NENA_004,001,2020_Sep_08_1308,test7,3.2.4,100.03439491270947,
150,65,Poeten skrev verk som allmänheten inte fick se.  ,6,,7,,cor,1,no,151,152,,,,,,,,,,,,,0,8,8,8,,,,,,,,,,,,,,,,,,,,,,,,,,,,,,,,,,,,,,,,,,,,,,,,,,,,,,,,,,,,,,,,,,,,,,,,,,,,,,,,,,,,,,,,,,,,,349.78614586126423,None,350.28692493325434,None,350.28692493325434,None,left,1,1.436739290245896,350.28692493325434,None,,,,,,,,,,,,,351.736940200371,None,,,,,,,,,,,,,,,,,,,,,,,,,,,,,,,,,344.29580391633635,None,344.29580391633635,None,344.7958882703638,None,349.29668626588136,349.29668626588136,0.009880647069167026,None,349.29668626588136,349.29668626588136,353.237484171592,None,353.237484171592,None,None,0.00786769696196643,None,,NENA_004,001,2020_Sep_08_1308,test7,3.2.4,100.03439491270947,
170,76,Pianot är redan stämd och mikrofonerna är på plats. ,4,,0,,inc,1,no,174,199,,,,,,,,,,,,,0,9,9,9,,,,,,,,,,,,,,,,,,,,,,,,,,,,,,,,,,,,,,,,,,,,,,,,,,,,,,,,,,,,,,,,,,,,,,,,,,,,,,,,,,,,,,,,,,,,,359.2379200541918,None,359.73869688101786,None,359.73869688101786,None,right,1,1.5528659200749644,359.73869688101786,None,,,,,,,,,,,,,361.3086962908601,None,,,,,,,,,,,,,,,,,,,,,,,,,,,,,,,,,353.24748573679244,None,353.24748573679244,None,353.7475986364798,None,358.74852492709624,358.74852492709624,0.009883533708944015,None,358.74852492709624,358.74852492709624,362.80926463815024,None,362.80926463815024,None,None,0.008191962825094379,None,,NENA_004,001,2020_Sep_08_1308,test7,3.2.4,100.03439491270947,
170,100,Mordet var väldigt hemsk och hela landet sörjde.,4,,0,,inc,1,no,174,199,,,,,,,,,,,,,0,10,10,10,,,,,,,,,,,,,,,,,,,,,,,,,,,,,,,,,,,,,,,,,,,,,,,,,,,,,,,,,,,,,,,,,,,,,,,,,,,,,,,,,,,,,,,,,,,,,368.30968031427165,None,368.8104218599451,None,368.8104218599451,None,right,1,2.3129948181613145,368.8104218599451,None,,,,,,,,,,,,,371.1408478125045,None,,,,,,,,,,,,,,,,,,,,,,,,,,,,,,,,,362.8192357332641,None,362.8192357332641,None,363.31938680074336,None,367.8202531134011,367.8202531134011,0.009880967806566332,None,367.8202531134011,367.8202531134011,372.6411441741835,None,372.6411441741835,None,None,0.007618804469075258,None,,NENA_004,001,2020_Sep_08_1308,test7,3.2.4,100.03439491270947,
130,1,Hönor lägger ofta ägg tidigt på morgonen.,3,,4,,cor,1,no,131,132,,,,,,,,,,,,,0,11,11,11,,,,,,,,,,,,,,,,,,,,,,,,,,,,,,,,,,,,,,,,,,,,,,,,,,,,,,,,,,,,,,,,,,,,,,,,,,,,,,,,,,,,,,,,,,,,,377.6414078206126,None,378.1421705349776,None,378.1421705349776,None,left,1,0.7412929323513708,378.1421705349776,None,,,,,,,,,,,,,378.90229943306394,None,,,,,,,,,,,,,,,,,,,,,,,,,,,,,,,,,372.65115985184457,None,372.65115985184457,None,373.15125190357867,None,377.1519575266243,377.1519575266243,0.009885137397304788,None,377.1519575266243,377.1519575266243,380.40262754778007,None,380.40262754778007,None,None,0.007720478335158987,None,,NENA_004,001,2020_Sep_08_1308,test7,3.2.4,100.03439491270947,
150,60,Hästarna hade stamtavlor men ägarna inte har vetat om dem. ,6,,7,,inc,1,no,157,158,,,,,,,,,,,,,0,12,12,12,,,,,,,,,,,,,,,,,,,,,,,,,,,,,,,,,,,,,,,,,,,,,,,,,,,,,,,,,,,,,,,,,,,,,,,,,,,,,,,,,,,,,,,,,,,,,386.90317087752555,None,387.403938402957,None,387.403938402957,None,right,1,0.5993744972438435,387.403938402957,None,,,,,,,,,,,,,388.01432478930747,None,,,,,,,,,,,,,,,,,,,,,,,,,,,,,,,,,380.4126150005195,None,380.4126150005195,None,380.9126740162651,None,386.4137549024763,386.4137549024763,0.009880967806566332,None,386.4137549024763,386.4137549024763,389.51431869529017,None,389.51431869529017,None,None,0.007952050989388226,None,,NENA_004,001,2020_Sep_08_1308,test7,3.2.4,100.03439491270947,
150,76,Bröderna tog leksaken och lillasystern inte hade sett den.  ,6,,7,,inc,1,no,157,158,,,,,,,,,,,,,0,13,13,13,,,,,,,,,,,,,,,,,,,,,,,,,,,,,,,,,,,,,,,,,,,,,,,,,,,,,,,,,,,,,,,,,,,,,,,,,,,,,,,,,,,,,,,,,,,,,395.5147513705124,None,396.0155714969342,None,396.0155714969342,None,right,1,1.55587283646355,396.0155714969342,None,,,,,,,,,,,,,397.5857970268894,None,,,,,,,,,,,,,,,,,,,,,,,,,,,,,,,,,389.5243257130319,None,389.5243257130319,None,390.02441648181457,None,395.025385430552,395.025385430552,0.00988096780702108,None,395.025385430552,395.025385430552,399.08615080062566,None,399.08615080062566,None,None,0.008372538177354727,None,,NENA_004,001,2020_Sep_08_1308,test7,3.2.4,100.03439491270947,
150,15,Snickaren använde trä men kunden ville inte köpa den.  ,6,,7,,cor,1,no,155,156,,,,,,,,,,,,,0,14,14,14,,,,,,,,,,,,,,,,,,,,,,,,,,,,,,,,,,,,,,,,,,,,,,,,,,,,,,,,,,,,,,,,,,,,,,,,,,,,,,,,,,,,,,,,,,,,,405.08659758830845,None,405.5873615856249,None,405.5873615856249,None,right,0,1.4399254990362351,405.5873615856249,None,,,,,,,,,,,,,407.03741213389367,None,,,,,,,,,,,,,,,,,,,,,,,,,,,,,,,,,399.0961478754971,None,399.0961478754971,None,399.59624056870643,None,404.59722330916657,404.59722330916657,0.009879364118205558,None,404.59722330916657,404.59722330916657,408.53794327560456,None,408.53794327560456,None,None,0.007711497678428714,None,,NENA_004,001,2020_Sep_08_1308,test7,3.2.4,100.03439491270947,
170,114,Sjön är ganska förorenat till följd av ansvarslös båttrafik. ,4,,0,,inc,1,no,172,199,,,,,,,,,,,,,0,15,15,15,,,,,,,,,,,,,,,,,,,,,,,,,,,,,,,,,,,,,,,,,,,,,,,,,,,,,,,,,,,,,,,,,,,,,,,,,,,,,,,,,,,,,,,,,,,,,414.5384000061581,None,415.03917298413126,None,415.03917298413126,None,right,1,0.7878906746141183,415.03917298413126,None,,,,,,,,,,,,,415.839038402572,None,,,,,,,,,,,,,,,,,,,,,,,,,,,,,,,,,408.5479438785919,None,408.5479438785919,None,409.0480384962275,None,414.0489695979104,414.0489695979104,0.009884495922051428,None,414.0489695979104,414.0489695979104,417.3396122024034,None,417.3396122024034,None,None,0.007956541318435484,None,,NENA_004,001,2020_Sep_08_1308,test7,3.2.4,100.03439491270947,
160,34,Den nya medicinen mildrar de flesta typer av huvudvärk som många andra liknande substanser på marknaden kan inte klara av.,17,,18,,inc,1,no,163,164,,,,,,,,,,,,,0,16,16,16,,,,,,,,,,,,,,,,,,,,,,,,,,,,,,,,,,,,,,,,,,,,,,,,,,,,,,,,,,,,,,,,,,,,,,,,,,,,,,,,,,,,,,,,,,,,,428.83110078478103,None,429.3318676687368,None,429.3318676687368,None,right,1,1.5111077896935967,429.3318676687368,None,,,,,,,,,,,,,430.85186310143126,None,,,,,,,,,,,,,,,,,,,,,,,,,,,,,,,,,417.3495961270273,None,417.3495961270273,None,417.84965738793744,None,428.3416678106314,428.3416678106314,0.009882892233235907,None,428.3416678106314,428.3416678106314,432.3524340146229,None,432.3524340146229,None,None,0.008088364532341075,None,,NENA_004,001,2020_Sep_08_1308,test7,3.2.4,100.03439491270947,
160,28,Det lilla rådjuret söker en lugn plats som de högljudda arbetarna från den kommunala parkförvaltningen kan inte hitta.,16,,17,,inc,1,no,163,164,,,,,,,,,,,,,0,17,17,17,,,,,,,,,,,,,,,,,,,,,,,,,,,,,,,,,,,,,,,,,,,,,,,,,,,,,,,,,,,,,,,,,,,,,,,,,,,,,,,,,,,,,,,,,,,,,442.8537522467677,None,443.35452265883896,None,443.35452265883896,None,right,1,1.2642426804436582,443.35452265883896,None,,,,,,,,,,,,,444.63500268778216,None,,,,,,,,,,,,,,,,,,,,,,,,,,,,,,,,,432.36244648490674,None,432.36244648490674,None,432.86255713942955,None,442.3643301777015,442.3643301777015,0.009877118954136677,None,442.3643301777015,442.3643301777015,446.13499402786294,None,446.13499402786294,None,None,0.007992784683665377,None,,NENA_004,001,2020_Sep_08_1308,test7,3.2.4,100.03439491270947,
180,36,Biobesöket som de alla hade sett fram emot så mycket den här veckan blev ganska tråkig av någon anledning. ,16,,0,,inc,1,no,182,199,,,,,,,,,,,,,0,18,18,18,,,,,,,,,,,,,,,,,,,,,,,,,,,,,,,,,,,,,,,,,,,,,,,,,,,,,,,,,,,,,,,,,,,,,,,,,,,,,,,,,,,,,,,,,,,,,457.12644091433367,None,457.6272154959952,None,457.6272154959952,None,right,1,0.9034569755967823,457.6272154959952,None,,,,,,,,,,,,,458.5471673725033,None,,,,,,,,,,,,,,,,,,,,,,,,,,,,,,,,,446.1450010456051,None,446.1450010456051,None,446.6451383213612,None,456.6370085816593,456.6370085816593,0.00988289223278116,None,456.6370085816593,456.6370085816593,460.047649120601,None,460.047649120601,None,None,0.007995029847734259,None,,NENA_004,001,2020_Sep_08_1308,test7,3.2.4,100.03439491270947,
150,73,Gästerna hade gåvor som värdarna inte ville ta emot.  ,6,,7,,cor,1,no,151,152,,,,,,,,,,,,,0,19,19,19,,,,,,,,,,,,,,,,,,,,,,,,,,,,,,,,,,,,,,,,,,,,,,,,,,,,,,,,,,,,,,,,,,,,,,,,,,,,,,,,,,,,,,,,,,,,,466.0481327931252,None,466.54891026142695,None,466.54891026142695,None,left,1,1.0698374372796025,466.54891026142695,None,,,,,,,,,,,,,467.6289012935995,None,,,,,,,,,,,,,,,,,,,,,,,,,,,,,,,,,460.05764395030883,None,460.05764395030883,None,460.5577401716332,None,465.5587216291424,465.5587216291424,0.009875836003175209,None,465.5587216291424,465.5587216291424,469.1293843246482,None,469.1293843246482,None,None,0.008313201693908923,None,,NENA_004,001,2020_Sep_08_1308,test7,3.2.4,100.03439491270947,
170,98,Skyskrapan var ganska högt men det fanns några högre. ,4,,0,,inc,1,no,172,199,,,,,,,,,,,,,0,20,20,20,,,,,,,,,,,,,,,,,,,,,,,,,,,,,,,,,,,,,,,,,,,,,,,,,,,,,,,,,,,,,,,,,,,,,,,,,,,,,,,,,,,,,,,,,,,,,475.1298394515129,None,475.6305867704659,None,475.6305867704659,None,right,1,1.5400425041661947,475.6305867704659,None,,,,,,,,,,,,,477.18067413942845,None,,,,,,,,,,,,,,,,,,,,,,,,,,,,,,,,,469.13934547689223,None,469.13934547689223,None,469.63946671576105,None,474.64042796679223,474.64042796679223,0.009878081166789343,None,474.64042796679223,474.64042796679223,478.6811732073644,None,478.6811732073644,None,None,0.007577750036944053,None,,NENA_004,001,2020_Sep_08_1308,test7,3.2.4,100.03439491270947,
140,56,Bin samlar ofta honung från omgivande blomsteräng.,3,,4,,inc,1,no,135,136,,,,,,,,,,,,,0,21,21,21,,,,,,,,,,,,,,,,,,,,,,,,,,,,,,,,,,,,,,,,,,,,,,,,,,,,,,,,,,,,,,,,,,,,,,,,,,,,,,,,,,,,,,,,,,,,,483.68145289068116,None,484.1822290760315,None,484.1822290760315,None,right,1,2.1482302332533436,484.1822290760315,None,,,,,,,,,,,,,486.3423564345767,None,,,,,,,,,,,,,,,,,,,,,,,,,,,,,,,,,478.6911924131409,None,478.6911924131409,None,479.1913011432375,None,483.1920253690728,483.1920253690728,0.00988096780702108,None,483.1920253690728,483.1920253690728,487.8429190085868,None,487.8429190085868,None,None,0.007959748695157032,None,,NENA_004,001,2020_Sep_08_1308,test7,3.2.4,100.03439491270947,
150,21,Astronomen upptäckte en planet som forskarna inte hade känt till.  ,6,,7,,cor,1,no,151,152,,,,,,,,,,,,,0,22,22,22,,,,,,,,,,,,,,,,,,,,,,,,,,,,,,,,,,,,,,,,,,,,,,,,,,,,,,,,,,,,,,,,,,,,,,,,,,,,,,,,,,,,,,,,,,,,,494.3434764507929,None,494.8442372407317,None,494.8442372407317,None,left,1,1.4940894447772735,494.8442372407317,None,,,,,,,,,,,,,496.35443958776204,None,,,,,,,,,,,,,,,,,,,,,,,,,,,,,,,,,487.8529350069857,None,487.8529350069857,None,488.3529831176479,None,493.85405053287377,493.85405053287377,0.009869421247458376,None,493.85405053287377,493.85405053287377,497.85482992560185,None,497.85482992560185,None,None,0.008420969577400683,None,,NENA_004,001,2020_Sep_08_1308,test7,3.2.4,100.03439491270947,
180,40,Fatet som med sina präglade mönster runt kanten såg väldigt inbjudande ut var otroligt kladdig efter kalaset.  ,15,,0,,inc,1,no,182,199,,,,,,,,,,,,,0,23,23,23,,,,,,,,,,,,,,,,,,,,,,,,,,,,,,,,,,,,,,,,,,,,,,,,,,,,,,,,,,,,,,,,,,,,,,,,,,,,,,,,,,,,,,,,,,,,,507.8559999769068,None,508.35681016045874,None,508.35681016045874,None,right,1,0.029604094153000915,508.35681016045874,None,,,,,,,,,,,,,508.3970014869401,None,,,,,,,,,,,,,,,,,,,,,,,,,,,,,,,,,497.8648112843239,None,497.8648112843239,None,498.3649036567949,None,507.36661543415676,507.36661543415676,0.00988096780702108,None,507.36661543415676,507.36661543415676,509.897093217936,None,509.897093217936,None,None,0.008099590353594976,None,,NENA_004,001,2020_Sep_08_1308,test7,3.2.4,100.03439491270947,
150,10,Syskonen fick godis som systern ville inte ha.  ,6,,7,,inc,1,no,153,154,,,,,,,,,,,,,0,24,24,24,,,,,,,,,,,,,,,,,,,,,,,,,,,,,,,,,,,,,,,,,,,,,,,,,,,,,,,,,,,,,,,,,,,,,,,,,,,,,,,,,,,,,,,,,,,,,515.397458858969,None,515.8982327991553,None,515.8982327991553,None,right,1,0.631894097527038,515.8982327991553,None,,,,,,,,,,,,,516.548288350933,None,,,,,,,,,,,,,,,,,,,,,,,,,,,,,,,,,509.9070655960013,None,509.9070655960013,None,510.4071961362647,None,514.9080040746521,514.9080040746521,0.009881288543965638,None,514.9080040746521,514.9080040746521,518.0485661098234,None,518.0485661098234,None,None,0.0081935665139099,None,,NENA_004,001,2020_Sep_08_1308,test7,3.2.4,100.03439491270947,
170,16,Fartyget är kraftigt skadad och måste bogseras.  ,4,,0,,inc,1,no,174,199,,,,,,,,,,,,,0,25,25,25,,,,,,,,,,,,,,,,,,,,,,,,,,,,,,,,,,,,,,,,,,,,,,,,,,,,,,,,,,,,,,,,,,,,,,,,,,,,,,,,,,,,,,,,,,,,,523.0489067333115,None,523.5495110032293,None,523.5495110032293,None,left,0,0.1325426292537486,523.5495110032293,None,,,,,,,,,,,,,523.699380847851,None,,,,,,,,,,,,,,,,,,,,,,,,,,,,,,,,,518.0586106538817,None,518.0586106538817,None,518.5587116862721,None,522.5594984559684,522.5594984559684,0.009881609282729187,None,522.5594984559684,522.5594984559684,525.1999119895619,None,525.1999119895619,None,None,0.008185227332432987,None,,NENA_004,001,2020_Sep_08_1308,test7,3.2.4,100.03439491270947,
160,24,En polisassistent från förorten arresterade tre misstänkta smugglare som de äldre kollegorna på polisstationen hade inte upptäckt.,15,,16,,inc,1,no,163,164,,,,,,,,,,,,,0,26,26,26,,,,,,,,,,,,,,,,,,,,,,,,,,,,,,,,,,,,,,,,,,,,,,,,,,,,,,,,,,,,,,,,,,,,,,,,,,,,,,,,,,,,,,,,,,,,,535.1911689992853,None,535.6919711643936,None,535.6919711643936,None,right,1,0.9339440607705001,535.6919711643936,None,,,,,,,,,,,,,536.641837929933,None,,,,,,,,,,,,,,,,,,,,,,,,,,,,,,,,,525.2099658350148,None,525.2099658350148,None,525.7100659051926,None,534.7017623256311,534.7017623256311,0.00987294936339822,None,534.7017623256311,534.7017623256311,538.1424194274701,None,538.1424194274701,None,None,0.008065912889833271,None,,NENA_004,001,2020_Sep_08_1308,test7,3.2.4,100.03439491270947,
180,25,Pennan som hade använts flera gånger tidigare på de många lektionerna var återigen vässad och matematikboken låg på bordet.,14,,0,,cor,1,no,181,199,,,,,,,,,,,,,0,27,27,27,,,,,,,,,,,,,,,,,,,,,,,,,,,,,,,,,,,,,,,,,,,,,,,,,,,,,,,,,,,,,,,,,,,,,,,,,,,,,,,,,,,,,,,,,,,,,549.1338246180335,None,549.6346043314988,None,549.6346043314988,None,left,1,2.7031164804034233,549.6346043314988,None,,,,,,,,,,,,,552.3550906853907,None,,,,,,,,,,,,,,,,,,,,,,,,,,,,,,,,,538.1524408784107,None,538.1524408784107,None,538.652537420473,None,548.6444198688055,548.6444198688055,0.009884175184652122,None,548.6444198688055,548.6444198688055,553.8553703687072,None,553.8553703687072,None,None,0.00830133439740166,None,,NENA_004,001,2020_Sep_08_1308,test7,3.2.4,100.03439491270947,
160,2,Den höga ljudnivån gav allvarliga skador på husgrunden som de flesta boende i de gamla radhusen kunde inte upptäcka direkt.,17,,18,,inc,1,no,163,164,,,,,,,,,,,,,0,28,28,28,,,,,,,,,,,,,,,,,,,,,,,,,,,,,,,,,,,,,,,,,,,,,,,,,,,,,,,,,,,,,,,,,,,,,,,,,,,,,,,,,,,,,,,,,,,,,565.3468990433034,None,565.8476235898765,None,565.8476235898765,None,right,1,0.8341093048584298,565.8476235898765,None,,,,,,,,,,,,,566.6978008937035,None,,,,,,,,,,,,,,,,,,,,,,,,,,,,,,,,,553.8653825182532,None,553.8653825182532,None,554.365489644661,None,564.8574734461217,564.8574734461217,0.00988321297108996,None,564.8574734461217,564.8574734461217,568.1980975761209,None,568.1980975761209,None,None,0.008367406373508857,None,,NENA_004,001,2020_Sep_08_1308,test7,3.2.4,100.03439491270947,
170,60,Lammet är verkligen gullig och kallas Maja.,4,,0,,inc,1,no,174,199,,,,,,,,,,,,,0,29,29,29,,,,,,,,,,,,,,,,,,,,,,,,,,,,,,,,,,,,,,,,,,,,,,,,,,,,,,,,,,,,,,,,,,,,,,,,,,,,,,,,,,,,,,,,,,,,,573.1983814290279,None,573.6991502374099,None,573.6991502374099,None,right,1,1.9664710380229735,573.6991502374099,None,,,,,,,,,,,,,575.6794829194318,None,,,,,,,,,,,,,,,,,,,,,,,,,,,,,,,,,568.2081081219776,None,568.2081081219776,None,568.7082062677287,None,572.7089616051258,572.7089616051258,0.009884495922506176,None,572.7089616051258,572.7089616051258,577.1797776774225,None,577.1797776774225,None,None,0.007614314141392242,None,,NENA_004,001,2020_Sep_08_1308,test7,3.2.4,100.03439491270947,
150,16,Forskaren gav en föreläsning men studenterna inte kunde följa den.  ,6,,7,,inc,1,no,157,158,,,,,,,,,,,,,0,30,30,30,,,,,,,,,,,,,,,,,,,,,,,,,,,,,,,,,,,,,,,,,,,,,,,,,,,,,,,,,,,,,,,,,,,,,,,,,,,,,,,,,,,,,,,,,,,,,583.6803623823371,None,584.1811231722759,None,584.1811231722759,None,right,1,1.0123763074871022,584.1811231722759,None,,,,,,,,,,,,,585.2111419803373,None,,,,,,,,,,,,,,,,,,,,,,,,,,,,,,,,,577.1898122786106,None,577.1898122786106,None,577.6899113865747,None,583.1909367851558,583.1909367851558,0.009883533708489267,None,583.1909367851558,583.1909367851558,586.7115807495771,None,586.7115807495771,None,None,0.007977068533818965,None,,NENA_004,001,2020_Sep_08_1308,test7,3.2.4,100.03439491270947,
140,74,Journalister tar ofta bilder av framstående människa.,3,,4,,inc,1,no,137,138,,,,,,,,,,,,,0,31,31,31,,,,,,,,,,,,,,,,,,,,,,,,,,,,,,,,,,,,,,,,,,,,,,,,,,,,,,,,,,,,,,,,,,,,,,,,,,,,,,,,,,,,,,,,,,,,,591.7218520552233,None,592.2226465226254,None,592.2226465226254,None,right,1,1.4107912856838993,592.2226465226254,None,,,,,,,,,,,,,593.6426449061073,None,,,,,,,,,,,,,,,,,,,,,,,,,,,,,,,,,586.7215688437918,None,586.7215688437918,None,587.2216734042977,None,591.2323825169701,591.2323825169701,0.009880647069167026,None,591.2323825169701,591.2323825169701,595.1431840662618,None,595.1431840662618,None,None,0.008183302905763412,None,,NENA_004,001,2020_Sep_08_1308,test7,3.2.4,100.03439491270947,
170,35,Strandbadet var helt tomt och solen strålade.  ,4,,0,,cor,1,no,173,199,,,,,,,,,,,,,0,32,32,32,,,,,,,,,,,,,,,,,,,,,,,,,,,,,,,,,,,,,,,,,,,,,,,,,,,,,,,,,,,,,,,,,,,,,,,,,,,,,,,,,,,,,,,,,,,,,600.1434765790882,None,600.644246991159,None,600.644246991159,None,left,1,2.5971283707931434,600.644246991159,None,,,,,,,,,,,,,603.2544435007626,None,,,,,,,,,,,,,,,,,,,,,,,,,,,,,,,,,595.1532308554847,None,595.1532308554847,None,595.6532311762221,None,599.6540468123158,599.6540468123158,0.00988000559300417,None,599.6540468123158,599.6540468123158,604.7550025466577,None,604.7550025466577,None,None,0.008716689781067544,None,,NENA_004,001,2020_Sep_08_1308,test7,3.2.4,100.03439491270947,
140,16,Pirater hittar ibland skatter nedgrävda i market.,3,,4,,inc,1,no,131,132,,,,,,,,,,,,,0,33,33,33,,,,,,,,,,,,,,,,,,,,,,,,,,,,,,,,,,,,,,,,,,,,,,,,,,,,,,,,,,,,,,,,,,,,,,,,,,,,,,,,,,,,,,,,,,,,,609.7452655900997,None,610.2460424169258,None,610.2460424169258,None,right,1,0.03541714510083693,610.2460424169258,None,,,,,,,,,,,,,610.2957635033799,None,,,,,,,,,,,,,,,,,,,,,,,,,,,,,,,,,604.765014054728,None,604.765014054728,None,605.2650977672802,None,609.255861482347,609.255861482347,0.00988160928227444,None,609.255861482347,609.255861482347,611.7963373032113,None,611.7963373032113,None,None,0.008701615106929239,None,,NENA_004,001,2020_Sep_08_1308,test7,3.2.4,100.03439491270947,
170,40,Päronet är för besk för barnen.  ,4,,0,,inc,1,no,174,199,,,,,,,,,,,,,0,34,34,34,,,,,,,,,,,,,,,,,,,,,,,,,,,,,,,,,,,,,,,,,,,,,,,,,,,,,,,,,,,,,,,,,,,,,,,,,,,,,,,,,,,,,,,,,,,,,616.2965281421716,None,616.7972337652172,None,616.7972337652172,None,right,1,0.44394402228272156,616.7972337652172,None,,,,,,,,,,,,,617.2570604000498,None,,,,,,,,,,,,,,,,,,,,,,,,,,,,,,,,,611.8063481698064,None,611.8063481698064,None,612.3064216187504,None,615.8070906776929,615.8070906776929,0.00988321297108996,None,615.8070906776929,615.8070906776929,618.7576441427515,None,618.7576441427515,None,None,0.008668899857184442,None,,NENA_004,001,2020_Sep_08_1308,test7,3.2.4,100.03439491270947,
160,7,Den snälla grannen bakade saftiga bullar med blåbär som den gamla tanten med mycket dålig syn inte kunde se.,17,,18,,cor,1,no,161,162,,,,,,,,,,,,,0,35,35,35,,,,,,,,,,,,,,,,,,,,,,,,,,,,,,,,,,,,,,,,,,,,,,,,,,,,,,,,,,,,,,,,,,,,,,,,,,,,,,,,,,,,,,,,,,,,,629.7590736708948,None,630.2598450451792,None,630.2598450451792,None,left,1,0.7012350327731838,630.2598450451792,None,,,,,,,,,,,,,630.9796786977536,None,,,,,,,,,,,,,,,,,,,,,,,,,,,,,,,,,618.767657575248,None,618.767657575248,None,619.2677518721462,None,629.2696079814946,629.2696079814946,0.0098825714958366,None,629.2696079814946,629.2696079814946,632.4802441584035,None,632.4802441584035,None,None,0.008617261079507443,None,,NENA_004,001,2020_Sep_08_1308,test7,3.2.4,100.03439491270947,
170,101,Boken är ganska sliten efter sommaren på stranden. ,4,,0,,cor,1,no,171,199,,,,,,,,,,,,,0,36,36,36,,,,,,,,,,,,,,,,,,,,,,,,,,,,,,,,,,,,,,,,,,,,,,,,,,,,,,,,,,,,,,,,,,,,,,,,,,,,,,,,,,,,,,,,,,,,,637.98060498837,None,638.4813847018359,None,638.4813847018359,None,left,1,2.6316169801129945,638.4813847018359,None,,,,,,,,,,,,,641.1222620222129,None,,,,,,,,,,,,,,,,,,,,,,,,,,,,,,,,,632.4902463650792,None,632.4902463650792,None,632.9903143614815,None,637.4912040879949,637.4912040879949,0.009881609282729187,None,637.4912040879949,637.4912040879949,642.6221677253149,None,642.6221677253149,None,None,0.007928316395918955,None,,NENA_004,001,2020_Sep_08_1308,test7,3.2.4,100.03439491270947,
170,9,Processen är mycket skadlig för miljön.  ,4,,0,,cor,1,no,171,199,,,,,,,,,,,,,0,37,37,37,,,,,,,,,,,,,,,,,,,,,,,,,,,,,,,,,,,,,,,,,,,,,,,,,,,,,,,,,,,,,,,,,,,,,,,,,,,,,,,,,,,,,,,,,,,,,647.1223505458315,None,647.6231232030668,None,647.6231232030668,None,left,1,0.08982709669498945,647.6231232030668,None,,,,,,,,,,,,,647.722858209539,None,,,,,,,,,,,,,,,,,,,,,,,,,,,,,,,,,642.6321635172358,None,642.6321635172358,None,643.1322250988833,None,646.6329297597163,646.6329297597163,0.0098822507575278,None,646.6329297597163,646.6329297597163,649.2234063503507,None,649.2234063503507,None,None,0.0078542259761889,None,,NENA_004,001,2020_Sep_08_1308,test7,3.2.4,100.03439491270947,
150,50,Riksdagen fattar beslut som kommunerna kan inte genomföra.  ,6,,7,,inc,1,no,153,154,,,,,,,,,,,,,0,38,38,38,,,,,,,,,,,,,,,,,,,,,,,,,,,,,,,,,,,,,,,,,,,,,,,,,,,,,,,,,,,,,,,,,,,,,,,,,,,,,,,,,,,,,,,,,,,,,654.7237877075331,None,655.2245658173101,None,655.2245658173101,None,right,1,0.5363306062072297,655.2245658173101,None,,,,,,,,,,,,,655.7749566041825,None,,,,,,,,,,,,,,,,,,,,,,,,,,,,,,,,,649.233420424323,None,649.233420424323,None,649.733518570074,None,654.2343447905132,654.2343447905132,0.0098822507575278,None,654.2343447905132,654.2343447905132,657.2749229267189,None,657.2749229267189,None,None,0.007972578205226455,None,,NENA_004,001,2020_Sep_08_1308,test7,3.2.4,100.03439491270947,
150,47,Djuren fick rättigheter men djurrättsaktivisterna hade inte krävt dessa från början. ,6,,7,,cor,1,no,155,156,,,,,,,,,,,,,0,39,39,39,,,,,,,,,,,,,,,,,,,,,,,,,,,,,,,,,,,,,,,,,,,,,,,,,,,,,,,,,,,,,,,,,,,,,,,,,,,,,,,,,,,,,,,,,,,,,664.275587816071,None,664.7763296824824,None,664.7763296824824,None,left,1,1.712378103618903,664.7763296824824,None,,,,,,,,,,,,,666.5063518903639,None,,,,,,,,,,,,,,,,,,,,,,,,,,,,,,,,,657.2849305859363,None,657.2849305859363,None,657.785036750131,None,663.7861635018403,663.7861635018403,0.009881288544875133,None,663.7861635018403,663.7861635018403,668.0069516699533,None,668.0069516699533,None,None,0.00864484452540637,None,,NENA_004,001,2020_Sep_08_1308,test7,3.2.4,100.03439491270947,
180,57,Cykeln som med sina löstagbara delar snabbt och enkelt kunde fällas ihop låg äntligen nerpackad i bagaget.  ,15,,0,,cor,1,no,181,199,,,,,,,,,,,,,0,40,40,40,,,,,,,,,,,,,,,,,,,,,,,,,,,,,,,,,,,,,,,,,,,,,,,,,,,,,,,,,,,,,,,,,,,,,,,,,,,,,,,,,,,,,,,,,,,,,677.998187831723,None,678.4986496940801,None,678.4986496940801,None,left,1,0.4539010049352328,678.4986496940801,None,,,,,,,,,,,,,678.968825573832,None,,,,,,,,,,,,,,,,,,,,,,,,,,,,,,,,,668.0169602913838,None,668.0169602913838,None,668.5170478527889,None,677.5087715359359,677.5087715359359,0.009880647069167026,None,677.5087715359359,677.5087715359359,680.4692460610196,None,680.4692460610196,None,None,0.008223395124787203,None,,NENA_004,001,2020_Sep_08_1308,test7,3.2.4,100.03439491270947,
150,34,Darknet är webbsidor som sökmotorer kan inte hitta.  ,6,,7,,inc,1,no,153,154,,,,,,,,,,,,,0,41,41,41,,,,,,,,,,,,,,,,,,,,,,,,,,,,,,,,,,,,,,,,,,,,,,,,,,,,,,,,,,,,,,,,,,,,,,,,,,,,,,,,,,,,,,,,,,,,,685.9696893205878,None,686.4704581289698,None,686.4704581289698,None,right,1,2.5060507176190185,686.4704581289698,None,,,,,,,,,,,,,688.9909134995951,None,,,,,,,,,,,,,,,,,,,,,,,,,,,,,,,,,680.4793053590147,None,680.4793053590147,None,680.9794121646846,None,685.4802531390601,685.4802531390601,0.009883533708944015,None,685.4802531390601,685.4802531390601,690.4911790704506,None,690.4911790704506,None,None,0.007681669068006158,None,,NENA_004,001,2020_Sep_08_1308,test7,3.2.4,100.03439491270947,
130,21,Skomakare lagar ofta skor åt äldre kunder.,3,,4,,cor,1,no,131,132,,,,,,,,,,,,,0,42,42,42,,,,,,,,,,,,,,,,,,,,,,,,,,,,,,,,,,,,,,,,,,,,,,,,,,,,,,,,,,,,,,,,,,,,,,,,,,,,,,,,,,,,,,,,,,,,,695.4914735077036,None,695.9922541833826,None,695.9922541833826,None,left,1,1.5282310158536347,695.9922541833826,None,,,,,,,,,,,,,697.5325135062667,None,,,,,,,,,,,,,,,,,,,,,,,,,,,,,,,,,690.5011876918811,None,690.5011876918811,None,691.0013233639488,None,695.0020562497034,695.0020562497034,0.009884175183742627,None,695.0020562497034,695.0020562497034,699.0328153204874,None,699.0328153204874,None,None,0.00792061869015015,None,,NENA_004,001,2020_Sep_08_1308,test7,3.2.4,100.03439491270947,
160,45,Den lite undanskymda båten inrymde ett flertal rum som den utmattade konstnären från södra Stockholm inte ville hyra.,16,,17,,cor,1,yes,161,162,,,,,,,,,,,,,0,43,43,43,,,,,,,,,,,,,,,,,,,,,,,,,,,,,,,,,,,,,,,,,,,,,,,,,,,,,,,,,,,,,,,,,,,,,,,,,,,,,,,,,,,,,,,,,,,,,709.5341287415663,None,710.0349007573259,None,710.0349007573259,None,left,1,1.117412788198635,710.0349007573259,None,,,,,,,,,,,,,711.1648473352466,None,,,,,,,,,,,,,,,,,,,,,,,,,,,,,,,,,699.0428467142983,None,699.0428467142983,None,699.5429538407061,None,709.0447085969263,709.0447085969263,0.009881288544875133,None,709.0447085969263,709.0447085969263,712.6658355282484,None,712.6658355282484,None,space,0.007835302449166193,None,70.36594380931228,NENA_004,001,2020_Sep_08_1308,test7,3.2.4,100.03439491270947,
170,18,Kakan är för sött för morföräldrarna.  ,4,,0,,inc,1,no,172,199,,,,,,,,,,,,,0,44,44,44,,,,,,,,,,,,,,,,,,,,,,,,,,,,,,,,,,,,,,,,,,,,,,,,,,,,,,,,,,,,,,,,,,,,,,,,,,,,,,,,,,,,,,,,,,,,,787.5289003955336,None,788.0296544499797,None,788.0296544499797,None,right,1,0.07407694883431759,788.0296544499797,None,,,,,,,,,,,,,788.1196294067763,None,,,,,,,,,,,,,,,,,,,,,,,,,,,,,,,,,783.0394860241731,None,783.0394860241731,None,783.5387791181765,None,787.0394311780183,787.0394311780183,0.009880005593913666,None,787.0394311780183,787.0394311780183,789.6199305795218,None,789.6199305795218,None,None,0.007742288501958683,None,,NENA_004,001,2020_Sep_08_1308,test7,3.2.4,100.03439491270947,
150,33,Barn berättar saker som lärare inte kan veta om.  ,6,,7,,cor,1,no,151,152,,,,,,,,,,,,,0,45,45,45,,,,,,,,,,,,,,,,,,,,,,,,,,,,,,,,,,,,,,,,,,,,,,,,,,,,,,,,,,,,,,,,,,,,,,,,,,,,,,,,,,,,,,,,,,,,,795.6204107239305,None,796.1211663820654,None,796.1211663820654,None,left,1,0.42245234799247555,796.1211663820654,None,,,,,,,,,,,,,796.5610697501966,None,,,,,,,,,,,,,,,,,,,,,,,,,,,,,,,,,789.6299510682493,None,789.6299510682493,None,790.1300581946571,None,795.1309799949449,795.1309799949449,0.009880005593458918,None,795.1309799949449,795.1309799949449,798.0615476494414,None,798.0615476494414,None,None,0.00800048238988893,None,,NENA_004,001,2020_Sep_08_1308,test7,3.2.4,100.03439491270947,
170,50,Älgen är väldigt utbrett i Sverige.  ,4,,0,,inc,1,no,172,199,,,,,,,,,,,,,0,46,46,46,,,,,,,,,,,,,,,,,,,,,,,,,,,,,,,,,,,,,,,,,,,,,,,,,,,,,,,,,,,,,,,,,,,,,,,,,,,,,,,,,,,,,,,,,,,,,802.561721168563,None,803.0625182018671,None,803.0625182018671,None,right,1,1.0729062560540115,803.0625182018671,None,,,,,,,,,,,,,804.1524447272636,None,,,,,,,,,,,,,,,,,,,,,,,,,,,,,,,,,798.0715508183303,None,798.0715508183303,None,798.5716069474361,None,802.0723138534331,802.0723138534331,0.00981072623972068,None,802.0723138534331,802.0723138534331,805.6529524551189,None,805.6529524551189,None,None,0.008030952475564845,None,,NENA_004,001,2020_Sep_08_1308,test7,3.2.4,100.03439491270947,
140,72,Inbrottstjuvar stjäl ofta saker när folk är bortrest.,3,,4,,inc,1,no,137,138,,,,,,,,,,,,,0,47,47,47,,,,,,,,,,,,,,,,,,,,,,,,,,,,,,,,,,,,,,,,,,,,,,,,,,,,,,,,,,,,,,,,,,,,,,,,,,,,,,,,,,,,,,,,,,,,,811.1533164924631,None,811.6541215442112,None,811.6541215442112,None,right,1,2.1372927553038608,811.6541215442112,None,,,,,,,,,,,,,813.8043595957679,None,,,,,,,,,,,,,,,,,,,,,,,,,,,,,,,,,805.6629280405618,None,805.6629280405618,None,806.1630714103353,None,810.6638771035587,810.6638771035587,0.009881288544875133,None,810.6638771035587,810.6638771035587,815.3047714230362,None,815.3047714230362,None,None,0.008413592608576437,None,,NENA_004,001,2020_Sep_08_1308,test7,3.2.4,100.03439491270947,
130,27,Apor äter gärna bananer från de omgivande plantagen.,3,,4,,cor,1,no,133,134,,,,,,,,,,,,,0,48,48,48,,,,,,,,,,,,,,,,,,,,,,,,,,,,,,,,,,,,,,,,,,,,,,,,,,,,,,,,,,,,,,,,,,,,,,,,,,,,,,,,,,,,,,,,,,,,,820.8051640060403,None,821.3059312107334,None,821.3059312107334,None,right,0,1.157351373335132,821.3059312107334,None,,,,,,,,,,,,,822.4761143391584,None,,,,,,,,,,,,,,,,,,,,,,,,,,,,,,,,,815.3148095523397,None,815.3148095523397,None,815.8148900575147,None,820.3157637471404,820.3157637471404,0.009881609281819692,None,820.3157637471404,820.3157637471404,823.9764180778058,None,823.9764180778058,None,None,0.007597315039674868,None,,NENA_004,001,2020_Sep_08_1308,test7,3.2.4,100.03439491270947,
170,43,Skåpet är väldigt modernt och passar bra i vardagsrummet. ,4,,0,,cor,1,no,173,199,,,,,,,,,,,,,0,49,49,49,,,,,,,,,,,,,,,,,,,,,,,,,,,,,,,,,,,,,,,,,,,,,,,,,,,,,,,,,,,,,,,,,,,,,,,,,,,,,,,,,,,,,,,,,,,,,829.9769020710678,None,830.4776612573178,None,830.4776612573178,None,left,1,0.753476155714452,830.4776612573178,None,,,,,,,,,,,,,831.2477833814223,None,,,,,,,,,,,,,,,,,,,,,,,,,,,,,,,,,823.9864337554668,None,823.9864337554668,None,824.4865277316271,None,829.487476794624,829.487476794624,0.009881930020128493,None,829.487476794624,829.487476794624,832.7480864785945,None,832.7480864785945,None,None,0.007893676719049836,None,,NENA_004,001,2020_Sep_08_1308,test7,3.2.4,100.03439491270947,
140,34,Matematiker löser gärna problem som intressera allmänheten.,3,,4,,inc,1,no,133,134,,,,,,,,,,,,,0,50,50,50,,,,,,,,,,,,,,,,,,,,,,,,,,,,,,,,,,,,,,,,,,,,,,,,,,,,,,,,,,,,,,,,,,,,,,,,,,,,,,,,,,,,,,,,,,,,,837.7483498042857,None,838.2491375361951,None,838.2491375361951,None,right,1,0.653949628778264,838.2491375361951,None,,,,,,,,,,,,,838.919065998848,None,,,,,,,,,,,,,,,,,,,,,,,,,,,,,,,,,832.758111778388,None,832.758111778388,None,833.2581698319204,None,837.2589556394037,837.2589556394037,0.009881930020128493,None,837.2589556394037,837.2589556394037,840.4195281819431,None,840.4195281819431,None,None,0.007971615992119041,None,,NENA_004,001,2020_Sep_08_1308,test7,3.2.4,100.03439491270947,
170,49,Utställningen är väldigt populär och har ett gott rykte. ,4,,0,,cor,1,no,171,199,,,,,,,,,,,,,0,51,51,51,,,,,,,,,,,,,,,,,,,,,,,,,,,,,,,,,,,,,,,,,,,,,,,,,,,,,,,,,,,,,,,,,,,,,,,,,,,,,,,,,,,,,,,,,,,,,846.4299778177774,None,846.9307703607528,None,846.9307703607528,None,left,1,2.69234354091941,846.9307703607528,None,,,,,,,,,,,,,849.6410008044104,None,,,,,,,,,,,,,,,,,,,,,,,,,,,,,,,,,840.4295412937022,None,840.4295412937022,None,840.9296086486293,None,845.9406032178977,845.9406032178977,0.009880647068712278,None,845.9406032178977,845.9406032178977,851.1415669065356,None,851.1415669065356,None,None,0.008657032559767686,None,,NENA_004,001,2020_Sep_08_1308,test7,3.2.4,100.03439491270947,
170,45,Tanden var ganska inflammerad och fick behandlas.  ,4,,0,,cor,1,no,171,199,,,,,,,,,,,,,0,52,52,52,,,,,,,,,,,,,,,,,,,,,,,,,,,,,,,,,,,,,,,,,,,,,,,,,,,,,,,,,,,,,,,,,,,,,,,,,,,,,,,,,,,,,,,,,,,,,856.1418257418986,None,856.6425297612554,None,856.6425297612554,None,left,1,0.9244592040827229,856.6425297612554,None,,,,,,,,,,,,,857.5825466705496,None,,,,,,,,,,,,,,,,,,,,,,,,,,,,,,,,,851.1515999040353,None,851.1515999040353,None,851.6516848995384,None,855.65243670882,855.65243670882,0.00988160928227444,None,855.65243670882,855.65243670882,859.0830675486528,None,859.0830675486528,None,None,0.0076367657834452984,None,,NENA_004,001,2020_Sep_08_1308,test7,3.2.4,100.03439491270947,
180,35,Staketet som löper runt hela odlingen för att hålla obehöriga på avstånd är för högt för nyfikna rådjur. ,15,,0,,cor,1,no,181,199,,,,,,,,,,,,,0,53,53,53,,,,,,,,,,,,,,,,,,,,,,,,,,,,,,,,,,,,,,,,,,,,,,,,,,,,,,,,,,,,,,,,,,,,,,,,,,,,,,,,,,,,,,,,,,,,,869.5843870637486,None,870.0851523440156,None,870.0851523440156,None,left,1,1.05772156884359,870.0851523440156,None,,,,,,,,,,,,,871.1550295527759,None,,,,,,,,,,,,,,,,,,,,,,,,,,,,,,,,,859.0930729627057,None,859.0930729627057,None,859.5931592411603,None,869.0949377319735,869.0949377319735,0.009881288544420386,None,869.0949377319735,869.0949377319735,872.6556367093332,None,872.6556367093332,None,None,0.007556902083706518,None,,NENA_004,001,2020_Sep_08_1308,test7,3.2.4,100.03439491270947,
140,66,Barn äter ofta mat med för mycket sockret.,3,,4,,inc,1,no,137,138,,,,,,,,,,,,,0,54,54,54,,,,,,,,,,,,,,,,,,,,,,,,,,,,,,,,,,,,,,,,,,,,,,,,,,,,,,,,,,,,,,,,,,,,,,,,,,,,,,,,,,,,,,,,,,,,,878.1559908038071,None,878.6566749374242,None,878.6566749374242,None,right,1,0.9981246463867137,878.6566749374242,None,,,,,,,,,,,,,879.6666899736097,None,,,,,,,,,,,,,,,,,,,,,,,,,,,,,,,,,872.6656366708448,None,872.6656366708448,None,873.1657149308553,None,877.666517416701,877.666517416701,0.009882571495381853,None,877.666517416701,877.666517416701,881.1672390766345,None,881.1672390766345,None,None,0.0077557594877362135,None,,NENA_004,001,2020_Sep_08_1308,test7,3.2.4,100.03439491270947,
170,92,Seminariet var för anspråksfull för de flesta.  ,4,,0,,inc,1,no,174,199,,,,,,,,,,,,,0,55,55,55,,,,,,,,,,,,,,,,,,,,,,,,,,,,,,,,,,,,,,,,,,,,,,,,,,,,,,,,,,,,,,,,,,,,,,,,,,,,,,,,,,,,,,,,,,,,,886.1675315894609,None,886.6682907757104,None,886.6682907757104,None,right,1,1.9224260474970833,886.6682907757104,None,,,,,,,,,,,,,888.6084225091186,None,,,,,,,,,,,,,,,,,,,,,,,,,,,,,,,,,881.1772537920824,None,881.1772537920824,None,881.6773387875855,None,885.678090917605,885.678090917605,0.009883533708489267,None,885.678090917605,885.678090917605,890.1088911069684,None,890.1088911069684,None,None,0.007996954273949086,None,,NENA_004,001,2020_Sep_08_1308,test7,3.2.4,100.03439491270947,
160,6,Det svenska landslaget spelade en historisk match som de öldrickande gubbarna i restaurangen skulle inte glömma.,14,,15,,inc,1,no,163,164,,,,,,,,,,,,,0,56,56,56,,,,,,,,,,,,,,,,,,,,,,,,,,,,,,,,,,,,,,,,,,,,,,,,,,,,,,,,,,,,,,,,,,,,,,,,,,,,,,,,,,,,,,,,,,,,,899.6100387066313,None,900.1108187408349,None,900.1108187408349,None,right,1,0.6236800037972898,900.1108187408349,None,,,,,,,,,,,,,900.7506818884526,None,,,,,,,,,,,,,,,,,,,,,,,,,,,,,,,,,890.11892667037,None,890.11892667037,None,890.6190312308759,None,899.1206323537144,899.1206323537144,0.009885458135158842,None,899.1206323537144,899.1206323537144,902.2512220108202,None,902.2512220108202,None,None,0.00775543874988216,None,,NENA_004,001,2020_Sep_08_1308,test7,3.2.4,100.03439491270947,
160,9,Arbetarna på lastfartyget såg en risk med bygget som många av de övriga arbetarna nere vid hamnen inte hade påtalat.,18,,19,,cor,1,no,161,162,,,,,,,,,,,,,0,57,57,57,,,,,,,,,,,,,,,,,,,,,,,,,,,,,,,,,,,,,,,,,,,,,,,,,,,,,,,,,,,,,,,,,,,,,,,,,,,,,,,,,,,,,,,,,,,,,913.7527176109397,None,914.2534966829303,None,914.2534966829303,None,left,1,0.49696068909861424,914.2534966829303,None,,,,,,,,,,,,,914.763586771749,None,,,,,,,,,,,,,,,,,,,,,,,,,,,,,,,,,902.2612588571728,None,902.2612588571728,None,902.7613387208721,None,913.2633096543345,913.2633096543345,0.009881288544875133,None,913.2633096543345,913.2633096543345,916.2638715868694,None,916.2638715868694,None,None,0.0077384396495290275,None,,NENA_004,001,2020_Sep_08_1308,test7,3.2.4,100.03439491270947,
170,87,Träslaget var för mjukt för att kunna användas. ,4,,0,,cor,1,no,173,199,,,,,,,,,,,,,0,58,58,58,,,,,,,,,,,,,,,,,,,,,,,,,,,,,,,,,,,,,,,,,,,,,,,,,,,,,,,,,,,,,,,,,,,,,,,,,,,,,,,,,,,,,,,,,,,,,921.7642487744611,None,922.2650195072697,None,922.2650195072697,None,left,1,1.461306518802303,922.2650195072697,None,,,,,,,,,,,,,923.7452623827221,None,,,,,,,,,,,,,,,,,,,,,,,,,,,,,,,,,916.273877642398,None,916.273877642398,None,916.7739636001143,None,921.2748225358041,921.2748225358041,0.009884816659450735,None,921.2748225358041,921.2748225358041,925.2455414245629,None,925.2455414245629,None,None,0.007981558861956728,None,,NENA_004,001,2020_Sep_08_1308,test7,3.2.4,100.03439491270947,
170,44,Fåret är nästan frisk efter behandlingen.  ,4,,0,,inc,1,no,174,199,,,,,,,,,,,,,0,59,59,59,,,,,,,,,,,,,,,,,,,,,,,,,,,,,,,,,,,,,,,,,,,,,,,,,,,,,,,,,,,,,,,,,,,,,,,,,,,,,,,,,,,,,,,,,,,,,929.745756639592,None,930.246528655352,None,930.246528655352,None,left,0,1.0236505600719283,930.246528655352,None,,,,,,,,,,,,,931.286691115436,None,,,,,,,,,,,,,,,,,,,,,,,,,,,,,,,,,925.2555391409105,None,925.2555391409105,None,925.7556725678137,None,929.2563268728195,929.2563268728195,0.009882892233690654,None,929.2563268728195,929.2563268728195,932.7870227582677,None,932.7870227582677,None,None,0.008129739702326333,None,,NENA_004,001,2020_Sep_08_1308,test7,3.2.4,100.03439491270947,
150,105,Säljaren gav en ursäkt som pojken inte kunde godta.  ,6,,7,,cor,1,no,151,152,,,,,,,,,,,,,0,60,60,60,,,,,,,,,,,,,,,,,,,,,,,,,,,,,,,,,,,,,,,,,,,,,,,,,,,,,,,,,,,,,,,,,,,,,,,,,,,,,,,,,,,,,,,,,,,,,938.7874685837373,None,939.2881998658031,None,939.2881998658031,None,left,1,1.133984024694655,939.2881998658031,None,,,,,,,,,,,,,940.4383137918512,None,,,,,,,,,,,,,,,,,,,,,,,,,,,,,,,,,932.7969204044375,None,932.7969204044375,None,933.2971125263484,None,938.2980368925387,938.2980368925387,0.00988160928227444,None,938.2980368925387,938.2980368925387,941.9387099029706,None,941.9387099029706,None,None,0.008398517935347627,None,,NENA_004,001,2020_Sep_08_1308,test7,3.2.4,100.03439491270947,
140,64,Lärare ger ofta betyg utan att diskuterar dem.,3,,4,,inc,1,no,137,138,,,,,,,,,,,,,0,61,61,61,,,,,,,,,,,,,,,,,,,,,,,,,,,,,,,,,,,,,,,,,,,,,,,,,,,,,,,,,,,,,,,,,,,,,,,,,,,,,,,,,,,,,,,,,,,,,947.4390999200723,None,947.9398058638558,None,947.9398058638558,None,right,1,2.2262609163094567,947.9398058638558,None,,,,,,,,,,,,,950.1799864776963,None,,,,,,,,,,,,,,,,,,,,,,,,,,,,,,,,,941.9487271843204,None,941.9487271843204,None,942.4488227641691,None,946.9496849072361,946.9496849072361,0.009882571495381853,None,946.9496849072361,946.9496849072361,951.6805525798219,None,951.6805525798219,None,None,0.007747741044113354,None,,NENA_004,001,2020_Sep_08_1308,test7,3.2.4,100.03439491270947,
150,26,Media får information som privatpersoner kan inte få tag på. ,6,,7,,inc,1,no,153,154,,,,,,,,,,,,,0,62,62,62,,,,,,,,,,,,,,,,,,,,,,,,,,,,,,,,,,,,,,,,,,,,,,,,,,,,,,,,,,,,,,,,,,,,,,,,,,,,,,,,,,,,,,,,,,,,,958.1810997584203,None,958.6819125078741,None,958.6819125078741,None,right,1,0.6361781916289146,958.6819125078741,None,,,,,,,,,,,,,959.3322445355911,None,,,,,,,,,,,,,,,,,,,,,,,,,,,,,,,,,951.6905727478115,None,951.6905727478115,None,952.1906644788073,None,957.6916844248467,957.6916844248467,0.009883854446343321,None,957.6916844248467,957.6916844248467,960.8322374793603,None,960.8322374793603,None,None,0.008030310999856738,None,,NENA_004,001,2020_Sep_08_1308,test7,3.2.4,100.03439491270947,
170,11,Konstverket är förmodligen falskt och undersöks därför grundligt. ,4,,0,,cor,1,no,173,199,,,,,,,,,,,,,0,63,63,63,,,,,,,,,,,,,,,,,,,,,,,,,,,,,,,,,,,,,,,,,,,,,,,,,,,,,,,,,,,,,,,,,,,,,,,,,,,,,,,,,,,,,,,,,,,,,966.3326781730266,None,966.8334415288668,None,966.8334415288668,None,left,1,0.8844574336108053,966.8334415288668,None,,,,,,,,,,,,,967.7336439785336,None,,,,,,,,,,,,,,,,,,,,,,,,,,,,,,,,,960.8423086446519,None,960.8423086446519,None,961.3423949231064,None,965.8432602735506,965.8432602735506,0.009879684856514359,None,965.8432602735506,965.8432602735506,969.2338287234767,None,969.2338287234767,None,None,0.008207037499232683,None,,NENA_004,001,2020_Sep_08_1308,test7,3.2.4,100.03439491270947,
150,40,Nätet sprider information och tidningar inte kan kontrollera detta.  ,6,,7,,inc,1,no,157,158,,,,,,,,,,,,,0,64,64,64,,,,,,,,,,,,,,,,,,,,,,,,,,,,,,,,,,,,,,,,,,,,,,,,,,,,,,,,,,,,,,,,,,,,,,,,,,,,,,,,,,,,,,,,,,,,,975.2343521674811,None,975.7349073645237,None,975.7349073645237,None,left,0,1.3509310375347923,975.7349073645237,None,,,,,,,,,,,,,977.0950121431315,None,,,,,,,,,,,,,,,,,,,,,,,,,,,,,,,,,969.2438286849879,None,969.2438286849879,None,969.7439669229575,None,974.7448851951303,974.7448851951303,0.009877760430754279,None,974.7448851951303,974.7448851951303,978.595659071169,None,978.595659071169,None,None,0.007590579547468224,None,,NENA_004,001,2020_Sep_08_1308,test7,3.2.4,100.03439491270947,
170,99,Nätet var redan färdigt och spindeln väntade på bytet. ,4,,0,,cor,1,no,173,199,,,,,,,,,,,,,0,65,65,65,,,,,,,,,,,,,,,,,,,,,,,,,,,,,,,,,,,,,,,,,,,,,,,,,,,,,,,,,,,,,,,,,,,,,,,,,,,,,,,,,,,,,,,,,,,,,984.5961103491809,None,985.0968849308429,None,985.0968849308429,None,left,1,1.9968465064603151,985.0968849308429,None,,,,,,,,,,,,,987.1075513853948,None,,,,,,,,,,,,,,,,,,,,,,,,,,,,,,,,,978.6056628815331,None,978.6056628815331,None,979.1057440281838,None,984.1066876386385,984.1066876386385,0.009879364119115053,None,984.1066876386385,984.1066876386385,988.6075250848995,None,988.6075250848995,None,None,0.00796071090917394,None,,NENA_004,001,2020_Sep_08_1308,test7,3.2.4,100.03439491270947,
140,14,Skräddare syr ofta kläder åt rika människa.,3,,4,,inc,1,no,131,132,,,,,,,,,,,,,0,66,66,66,,,,,,,,,,,,,,,,,,,,,,,,,,,,,,,,,,,,,,,,,,,,,,,,,,,,,,,,,,,,,,,,,,,,,,,,,,,,,,,,,,,,,,,,,,,,,993.6077941838703,None,994.1085867268457,None,994.1085867268457,None,right,1,0.7930029135823133,994.1085867268457,None,,,,,,,,,,,,,994.9187212057686,None,,,,,,,,,,,,,,,,,,,,,,,,,,,,,,,,,988.6175308196898,None,988.6175308196898,None,989.1176430779024,None,993.1183945664461,993.1183945664461,0.009882250757982547,None,993.1183945664461,993.1183945664461,996.4190204540879,None,996.4190204540879,None,None,0.008140003311382316,None,,NENA_004,001,2020_Sep_08_1308,test7,3.2.4,100.03439491270947,
170,24,Vinet är ganska dyr att importera.  ,4,,0,,inc,1,no,174,199,,,,,,,,,,,,,0,67,67,67,,,,,,,,,,,,,,,,,,,,,,,,,,,,,,,,,,,,,,,,,,,,,,,,,,,,,,,,,,,,,,,,,,,,,,,,,,,,,,,,,,,,,,,,,,,,,1000.9191753704199,None,1001.4199746488885,None,1001.4199746488885,None,left,0,1.0735891067197372,1001.4199746488885,None,,,,,,,,,,,,,1002.5099085512529,None,,,,,,,,,,,,,,,,,,,,,,,,,,,,,,,,,996.4290002091211,None,996.4290002091211,None,996.9291297871714,None,1000.4297828092267,1000.4297828092267,0.009897004694721545,None,1000.4297828092267,1000.4297828092267,1004.0104502773098,None,1004.0104502773098,None,None,0.008197094629394996,None,,NENA_004,001,2020_Sep_08_1308,test7,3.2.4,100.03439491270947,
170,36,Köket är för sval och behöver värmas upp. ,4,,0,,inc,1,no,174,199,,,,,,,,,,,,,0,68,68,68,,,,,,,,,,,,,,,,,,,,,,,,,,,,,,,,,,,,,,,,,,,,,,,,,,,,,,,,,,,,,,,,,,,,,,,,,,,,,,,,,,,,,,,,,,,,,1009.510822653835,None,1010.011570935002,None,1010.011570935002,None,left,0,3.2740129937274105,1010.011570935002,None,,,,,,,,,,,,,1013.3018998579773,None,,,,,,,,,,,,,,,,,,,,,,,,,,,,,,,,,1004.0204399752129,None,1004.0204399752129,None,1004.5205284988315,None,1009.021413093541,1009.021413093541,0.009883854447252816,None,1009.021413093541,1009.021413093541,1014.8024967509269,None,1014.8024967509269,None,None,0.007745816617898527,None,,NENA_004,001,2020_Sep_08_1308,test7,3.2.4,100.03439491270947,
150,109,Konstapeln använde förhörsrummet som kollegan inte ville använda.  ,6,,7,,cor,1,no,151,152,,,,,,,,,,,,,0,69,69,69,,,,,,,,,,,,,,,,,,,,,,,,,,,,,,,,,,,,,,,,,,,,,,,,,,,,,,,,,,,,,,,,,,,,,,,,,,,,,,,,,,,,,,,,,,,,,1020.3028633541726,None,1020.8036392187851,None,1020.8036392187851,None,left,1,0.6898735395207041,1020.8036392187851,None,,,,,,,,,,,,,1021.5041160275214,None,,,,,,,,,,,,,,,,,,,,,,,,,,,,,,,,,1014.8125121078501,None,1014.8125121078501,None,1015.3126070462231,None,1019.8134473791233,1019.8134473791233,0.00988160928227444,None,1019.8134473791233,1019.8134473791233,1023.0040534836613,None,1023.0040534836613,None,None,0.007900412212620722,None,,NENA_004,001,2020_Sep_08_1308,test7,3.2.4,100.03439491270947,
130,51,Snickare tillverkar ofta möbler från gammalt trä.,3,,4,,cor,1,no,135,136,,,,,,,,,,,,,0,70,70,70,,,,,,,,,,,,,,,,,,,,,,,,,,,,,,,,,,,,,,,,,,,,,,,,,,,,,,,,,,,,,,,,,,,,,,,,,,,,,,,,,,,,,,,,,,,,,1028.004318092303,None,1028.5051035790484,None,1028.5051035790484,None,left,1,0.5322861032036599,1028.5051035790484,None,,,,,,,,,,,,,1029.0550280132347,None,,,,,,,,,,,,,,,,,,,,,,,,,,,,,,,,,1023.0140746138641,None,1023.0140746138641,None,1023.5141288185432,None,1027.5148947402859,1027.5148947402859,0.009885137396850041,None,1027.5148947402859,1027.5148947402859,1030.5554581225547,None,1030.5554581225547,None,None,0.007940504429825523,None,,NENA_004,001,2020_Sep_08_1308,test7,3.2.4,100.03439491270947,
180,44,Bröllopet som för att vara en vuxenfest avslutades alldeles för tidigt var ändå jättelyckad enligt de flesta gästerna. ,14,,0,,inc,1,no,182,199,,,,,,,,,,,,,0,71,71,71,,,,,,,,,,,,,,,,,,,,,,,,,,,,,,,,,,,,,,,,,,,,,,,,,,,,,,,,,,,,,,,,,,,,,,,,,,,,,,,,,,,,,,,,,,,,,1041.056777637651,None,1041.5575727465284,None,1041.5575727465284,None,right,1,0.6876938057839652,1041.5575727465284,None,,,,,,,,,,,,,1042.2574151359995,None,,,,,,,,,,,,,,,,,,,,,,,,,,,,,,,,,1030.565475403905,None,1030.565475403905,None,1031.06555590908,None,1040.5673671151435,1040.5673671151435,0.0098825714958366,None,1040.5673671151435,1040.5673671151435,1043.7579629560728,None,1043.7579629560728,None,None,0.007844924581149826,None,,NENA_004,001,2020_Sep_08_1308,test7,3.2.4,100.03439491270947,
150,115,Målvakten gjorde misstag och domaren kunde inte ignorera dem.  ,6,,7,,cor,1,no,155,156,,,,,,,,,,,,,0,72,72,72,,,,,,,,,,,,,,,,,,,,,,,,,,,,,,,,,,,,,,,,,,,,,,,,,,,,,,,,,,,,,,,,,,,,,,,,,,,,,,,,,,,,,,,,,,,,,1049.7584049326897,None,1050.2591958719768,None,1050.2591958719768,None,right,0,1.7539078687232177,1050.2591958719768,None,,,,,,,,,,,,,1052.0292974688655,None,,,,,,,,,,,,,,,,,,,,,,,,,,,,,,,,,1043.767947522172,None,1043.767947522172,None,1044.2680594596468,None,1049.2690242387935,1049.2690242387935,0.009882250757073052,None,1049.2690242387935,1049.2690242387935,1053.5297670289287,None,1053.5297670289287,None,None,0.008148983966748347,None,,NENA_004,001,2020_Sep_08_1308,test7,3.2.4,100.03439491270947,
150,49,Regeringen presenterar förslag som riksdagen inte vill diskutera.  ,6,,7,,cor,1,no,151,152,,,,,,,,,,,,,0,73,73,73,,,,,,,,,,,,,,,,,,,,,,,,,,,,,,,,,,,,,,,,,,,,,,,,,,,,,,,,,,,,,,,,,,,,,,,,,,,,,,,,,,,,,,,,,,,,,1059.0301817428372,None,1059.530954400073,None,1059.530954400073,None,left,1,1.3140741006836834,1059.530954400073,None,,,,,,,,,,,,,1060.8609730156913,None,,,,,,,,,,,,,,,,,,,,,,,,,,,,,,,,,1053.5397762918356,None,1053.5397762918356,None,1054.039889191523,None,1058.5407311281115,1058.5407311281115,0.00988417518510687,None,1058.5407311281115,1058.5407311281115,1062.3614762532184,None,1062.3614762532184,None,None,0.008618223292614857,None,,NENA_004,001,2020_Sep_08_1308,test7,3.2.4,100.03439491270947,
160,25,Filosofen med de tjocka glasögonen drog en fullständigt absurd slutsats som de två psykologerna bland deltagarna i seminariet inte kunde förstå.,19,,20,,cor,1,no,161,162,,,,,,,,,,,,,0,74,74,74,,,,,,,,,,,,,,,,,,,,,,,,,,,,,,,,,,,,,,,,,,,,,,,,,,,,,,,,,,,,,,,,,,,,,,,,,,,,,,,,,,,,,,,,,,,,,1074.3630991862237,None,1074.863790055334,None,1074.863790055334,None,left,1,0.5971655763723902,1074.863790055334,None,,,,,,,,,,,,,1075.4736655064517,None,,,,,,,,,,,,,,,,,,,,,,,,,,,,,,,,,1062.3714893649776,None,1062.3714893649776,None,1062.8715634553973,None,1073.8736844941259,1073.8736844941259,0.009881930020128493,None,1073.8736844941259,1073.8736844941259,1076.9742351366917,None,1076.9742351366917,None,None,0.008706105434612255,None,,NENA_004,001,2020_Sep_08_1308,test7,3.2.4,100.03439491270947,
170,48,Arbetet var ganska välbetald och det fanns många sökande. ,4,,0,,inc,1,no,174,199,,,,,,,,,,,,,0,75,75,75,,,,,,,,,,,,,,,,,,,,,,,,,,,,,,,,,,,,,,,,,,,,,,,,,,,,,,,,,,,,,,,,,,,,,,,,,,,,,,,,,,,,,,,,,,,,,1082.974697640525,None,1083.4754606756278,None,1083.4754606756278,None,right,1,2.3373968667774534,1083.4754606756278,None,,,,,,,,,,,,,1085.8256386209305,None,,,,,,,,,,,,,,,,,,,,,,,,,,,,,,,,,1076.9842450410733,None,1076.9842450410733,None,1077.484307264197,None,1082.4852774958845,1082.4852774958845,0.009882250757073052,None,1082.4852774958845,1082.4852774958845,1087.3261688004281,None,1087.3261688004281,None,None,0.007992143208866764,None,,NENA_004,001,2020_Sep_08_1308,test7,3.2.4,100.03439491270947,
160,59,Många europeiska klädaffärer bedriver en omoralisk utlandshandel som konsumenterna i de relativt välbärgade länderna inte vill förändra.,15,,16,,cor,1,no,161,162,,,,,,,,,,,,,0,76,76,76,,,,,,,,,,,,,,,,,,,,,,,,,,,,,,,,,,,,,,,,,,,,,,,,,,,,,,,,,,,,,,,,,,,,,,,,,,,,,,,,,,,,,,,,,,,,,1097.3273991504302,None,1097.8281772602068,None,1097.8281772602068,None,left,1,1.4885118153379153,1097.8281772602068,None,,,,,,,,,,,,,1099.328434812619,None,,,,,,,,,,,,,,,,,,,,,,,,,,,,,,,,,1087.336166516775,None,1087.336166516775,None,1087.8362008357144,None,1096.837995042677,1096.837995042677,0.009883533709398762,None,1096.837995042677,1096.837995042677,1100.8287552296292,None,1100.8287552296292,None,None,0.007942428858768835,None,,NENA_004,001,2020_Sep_08_1308,test7,3.2.4,100.03439491270947,
160,13,Den egyptiska bomullen uppvisade en otroligt hög kvalitet som de nyfikna besökarna på plantagen i norr inte kunde sluta beundra.,17,,18,,cor,1,no,161,162,,,,,,,,,,,,,0,77,77,77,,,,,,,,,,,,,,,,,,,,,,,,,,,,,,,,,,,,,,,,,,,,,,,,,,,,,,,,,,,,,,,,,,,,,,,,,,,,,,,,,,,,,,,,,,,,,1112.3302575652415,None,1112.8310228455084,None,1112.8310228455084,None,left,1,1.0935062794033001,1112.8310228455084,None,,,,,,,,,,,,,1113.9410532129586,None,,,,,,,,,,,,,,,,,,,,,,,,,,,,,,,,,1100.8387632095837,None,1100.8387632095837,None,1101.3388433940208,None,1111.840822987403,1111.840822987403,0.009876798217192118,None,1111.840822987403,1111.840822987403,1115.4415003213794,None,1115.4415003213794,None,None,0.007986049191458733,None,,NENA_004,001,2020_Sep_08_1308,test7,3.2.4,100.03439491270947,
150,30,Föräldrarna drar skämt som barnen kan inte förstå.  ,6,,7,,inc,1,no,153,154,,,,,,,,,,,,,0,78,78,78,,,,,,,,,,,,,,,,,,,,,,,,,,,,,,,,,,,,,,,,,,,,,,,,,,,,,,,,,,,,,,,,,,,,,,,,,,,,,,,,,,,,,,,,,,,,,1120.941857943968,None,1121.4426447136648,None,1121.4426447136648,None,right,1,2.129942729067807,1121.4426447136648,None,,,,,,,,,,,,,1123.5829299521583,None,,,,,,,,,,,,,,,,,,,,,,,,,,,,,,,,,1115.4514617943605,None,1115.4514617943605,None,1115.9515939383127,None,1120.4524095744064,1120.4524095744064,0.009880005593913666,None,1120.4524095744064,1120.4524095744064,1125.083310988603,None,1125.083310988603,None,None,0.00836259530751704,None,,NENA_004,001,2020_Sep_08_1308,test7,3.2.4,100.03439491270947,
180,37,Tavlan som för en liten stund sedan auktionerades ut till en beslutsam konstkännare var otroligt vacker men kostade en förmögenhet. ,16,,0,,cor,1,no,181,199,,,,,,,,,,,,,0,79,79,79,,,,,,,,,,,,,,,,,,,,,,,,,,,,,,,,,,,,,,,,,,,,,,,,,,,,,,,,,,,,,,,,,,,,,,,,,,,,,,,,,,,,,,,,,,,,,1136.5748406254124,None,1137.075606547155,None,1137.075606547155,None,right,0,2.7685572446316655,1137.075606547155,None,,,,,,,,,,,,,1139.8556391469401,None,,,,,,,,,,,,,,,,,,,,,,,,,,,,,,,,,1125.0933471934804,None,1125.0933471934804,None,1125.5934366793126,None,1136.085415669707,1136.085415669707,0.009881288543510891,None,1136.085415669707,1136.085415669707,1141.3564005783542,None,1141.3564005783542,None,None,0.00768519718258176,None,,NENA_004,001,2020_Sep_08_1308,test7,3.2.4,100.03439491270947,
170,15,Modemet är för gammalt för att repareras.  ,4,,0,,cor,1,no,173,199,,,,,,,,,,,,,0,80,80,80,,,,,,,,,,,,,,,,,,,,,,,,,,,,,,,,,,,,,,,,,,,,,,,,,,,,,,,,,,,,,,,,,,,,,,,,,,,,,,,,,,,,,,,,,,,,,1146.3566741676532,None,1146.8574545225947,None,1146.8574545225947,None,left,1,0.17077521030751086,1146.8574545225947,None,,,,,,,,,,,,,1147.0471625614373,None,,,,,,,,,,,,,,,,,,,,,,,,,,,,,,,,,1141.366419463393,None,1141.366419463393,None,1141.8664922708613,None,1145.867248570472,1145.867248570472,0.009882892233690654,None,1145.867248570472,1145.867248570472,1148.5477844719312,None,1148.5477844719312,None,None,0.007724968664660992,None,,NENA_004,001,2020_Sep_08_1308,test7,3.2.4,100.03439491270947,
170,117,Lampan är tillräckligt stark för att man ska kunna se.,4,,0,,cor,1,no,171,199,,,,,,,,,,,,,0,81,81,81,,,,,,,,,,,,,,,,,,,,,,,,,,,,,,,,,,,,,,,,,,,,,,,,,,,,,,,,,,,,,,,,,,,,,,,,,,,,,,,,,,,,,,,,,,,,,1155.0483245942987,None,1155.5491027040762,None,1155.5491027040762,None,left,1,1.2711013364496466,1155.5491027040762,None,,,,,,,,,,,,,1156.829536226046,None,,,,,,,,,,,,,,,,,,,,,,,,,,,,,,,,,1148.557768075817,None,1148.557768075817,None,1149.0578729570607,None,1154.558940372287,1154.558940372287,0.0098825714958366,None,1154.558940372287,1154.558940372287,1158.3296192971225,None,1158.3296192971225,None,None,0.008096703714727482,None,,NENA_004,001,2020_Sep_08_1308,test7,3.2.4,100.03439491270947,
150,57,Utvärderingen gav resultat som forskarna inte kunde värdera.  ,6,,7,,cor,1,no,151,152,,,,,,,,,,,,,0,82,82,82,,,,,,,,,,,,,,,,,,,,,,,,,,,,,,,,,,,,,,,,,,,,,,,,,,,,,,,,,,,,,,,,,,,,,,,,,,,,,,,,,,,,,,,,,,,,,1163.829991032172,None,1164.3307527843244,None,1164.3307527843244,None,left,1,1.297344740477456,1164.3307527843244,None,,,,,,,,,,,,,1165.6510155198584,None,,,,,,,,,,,,,,,,,,,,,,,,,,,,,,,,,1158.3394858317306,None,1158.3394858317306,None,1158.83968821725,None,1163.3405753778607,1163.3405753778607,0.009880326330858225,None,1163.3405753778607,1163.3405753778607,1167.151275958909,None,1167.151275958909,None,None,0.008974242192380188,None,,NENA_004,001,2020_Sep_08_1308,test7,3.2.4,100.03439491270947,
160,4,Det nya lagförslaget innebär stora praktiska förändringar som de mer erfarna medlemmarna i partiet kan inte ställa sig bakom.,15,,16,,inc,1,no,163,164,,,,,,,,,,,,,0,83,83,83,,,,,,,,,,,,,,,,,,,,,,,,,,,,,,,,,,,,,,,,,,,,,,,,,,,,,,,,,,,,,,,,,,,,,,,,,,,,,,,,,,,,,,,,,,,,,1178.1526945819696,None,1178.6533867340304,None,1178.6533867340304,None,right,1,0.7265717111877166,1178.6533867340304,None,,,,,,,,,,,,,1179.3933854895677,None,,,,,,,,,,,,,,,,,,,,,,,,,,,,,,,,,1167.1612820144383,None,1167.1612820144383,None,1167.661367972155,None,1177.6632782861825,1177.6632782861825,0.009876798215373128,None,1177.6632782861825,1177.6632782861825,1180.8938633888124,None,1180.8938633888124,None,None,0.008259638489107601,None,,NENA_004,001,2020_Sep_08_1308,test7,3.2.4,100.03439491270947,
170,61,Elden var ganska farlig för de närliggande husen. ,4,,0,,cor,1,no,171,199,,,,,,,,,,,,,0,84,84,84,,,,,,,,,,,,,,,,,,,,,,,,,,,,,,,,,,,,,,,,,,,,,,,,,,,,,,,,,,,,,,,,,,,,,,,,,,,,,,,,,,,,,,,,,,,,,1186.3942530851764,None,1186.8950196483947,None,1186.8950196483947,None,left,1,1.2368872786428255,1186.8950196483947,None,,,,,,,,,,,,,1188.145201506698,None,,,,,,,,,,,,,,,,,,,,,,,,,,,,,,,,,1180.9038251825314,None,1180.9038251825314,None,1181.4039438554983,None,1185.9048464115222,1185.9048464115222,0.009884495922051428,None,1185.9048464115222,1185.9048464115222,1189.645534111742,None,1189.645534111742,None,None,0.00872663265090523,None,,NENA_004,001,2020_Sep_08_1308,test7,3.2.4,100.03439491270947,
180,43,Myntet som på den här tiden faktiskt räckte till ett par nya skor såg fantastiskt blankt ut i solskenet. ,16,,0,,cor,1,no,181,199,,,,,,,,,,,,,0,85,85,85,,,,,,,,,,,,,,,,,,,,,,,,,,,,,,,,,,,,,,,,,,,,,,,,,,,,,,,,,,,,,,,,,,,,,,,,,,,,,,,,,,,,,,,,,,,,,1200.646942150457,None,1201.1477202602337,None,1201.1477202602337,None,left,1,1.575998488683581,1201.1477202602337,None,,,,,,,,,,,,,1202.7377866272882,None,,,,,,,,,,,,,,,,,,,,,,,,,,,,,,,,,1189.655541129484,None,1189.655541129484,None,1190.1556152199046,None,1200.1575008371256,1200.1575008371256,0.009884175184197375,None,1200.1575008371256,1200.1575008371256,1204.2382847330114,None,1204.2382847330114,None,None,0.0076005224173059105,None,,NENA_004,001,2020_Sep_08_1308,test7,3.2.4,100.03439491270947,
180,24,Kaffet som hade hällts upp i de små fina kaffekopparna på middagsbordet var för varm att drickas utan mjölk. ,15,,0,,inc,1,no,182,199,,,,,,,,,,,,,0,86,86,86,,,,,,,,,,,,,,,,,,,,,,,,,,,,,,,,,,,,,,,,,,,,,,,,,,,,,,,,,,,,,,,,,,,,,,,,,,,,,,,,,,,,,,,,,,,,,1215.2396886021352,None,1215.7404455432206,None,1215.7404455432206,None,right,1,0.9911755423354407,1215.7404455432206,None,,,,,,,,,,,,,1216.7503941866926,None,,,,,,,,,,,,,,,,,,,,,,,,,,,,,,,,,1204.2483042595259,None,1204.2483042595259,None,1204.7484027260143,None,1214.7502880224974,1214.7502880224974,0.009883533709398762,None,1214.7502880224974,1214.7502880224974,1218.2509436104551,None,1218.2509436104551,None,None,0.007602767581374792,None,,NENA_004,001,2020_Sep_08_1308,test7,3.2.4,100.03439491270947,
160,52,Tre promenader i veckan har positiva effekter på hjärnan som många människor med lätt eller medelsvår depression bör inte vara utan.,18,,19,,inc,1,yes,163,164,,,,,,,,,,,,,0,87,87,87,,,,,,,,,,,,,,,,,,,,,,,,,,,,,,,,,,,,,,,,,,,,,,,,,,,,,,,,,,,,,,,,,,,,,,,,,,,,,,,,,,,,,,,,,,,,,1230.232509849856,None,1230.7332215669194,None,1230.7332215669194,None,left,0,2.254407257397361,1230.7332215669194,None,,,,,,,,,,,,,1233.0036932951698,None,,,,,,,,,,,,,,,,,,,,,,,,,,,,,,,,,1218.2609538355746,None,1218.2609538355746,None,1218.7610397932913,None,1229.7430650084098,1229.7430650084098,0.00988160928227444,None,1229.7430650084098,1229.7430650084098,1234.5037349910772,None,1234.5037349910772,None,space,0.007917411311609612,None,57.77866048369742,NENA_004,001,2020_Sep_08_1308,test7,3.2.4,100.03439491270947,
170,51,Mörkret är särskilt långvarigt i Finland.  ,4,,0,,cor,1,no,173,199,,,,,,,,,,,,,0,88,88,88,,,,,,,,,,,,,,,,,,,,,,,,,,,,,,,,,,,,,,,,,,,,,,,,,,,,,,,,,,,,,,,,,,,,,,,,,,,,,,,,,,,,,,,,,,,,,1296.7850819741534,None,1297.2858751586045,None,1297.2858751586045,None,left,1,0.04515249796986609,1297.2858751586045,None,,,,,,,,,,,,,1297.3461404985292,None,,,,,,,,,,,,,,,,,,,,,,,,,,,,,,,,,1292.2949276608078,None,1292.2949276608078,None,1292.794960376059,None,1296.2957025632077,1296.2957025632077,0.009883212971544708,None,1296.2957025632077,1296.2957025632077,1298.846144347382,None,1298.846144347382,None,None,0.008007217882550322,None,,NENA_004,001,2020_Sep_08_1308,test7,3.2.4,100.03439491270947,
170,6,Mangon var mycket saftigt men smakade inget.  ,4,,0,,inc,1,no,172,199,,,,,,,,,,,,,0,89,89,89,,,,,,,,,,,,,,,,,,,,,,,,,,,,,,,,,,,,,,,,,,,,,,,,,,,,,,,,,,,,,,,,,,,,,,,,,,,,,,,,,,,,,,,,,,,,,1303.8464169744675,None,1304.347225875069,None,1304.347225875069,None,right,1,0.5435093584865172,1304.347225875069,None,,,,,,,,,,,,,1304.9070155609124,None,,,,,,,,,,,,,,,,,,,,,,,,,,,,,,,,,1298.8561257061037,None,1298.8561257061037,None,1299.3562559256297,None,1303.3570279413898,1303.3570279413898,0.00988000559300417,None,1303.3570279413898,1303.3570279413898,1306.4075826252515,None,1306.4075826252515,None,None,0.008100231830212579,None,,NENA_004,001,2020_Sep_08_1308,test7,3.2.4,100.03439491270947,
180,49,Ålen som tidigt rödlistades på grund av det nära förestående utrotningshotet är fortfarande vanlig som julmat.  ,14,,0,,cor,1,no,181,199,,,,,,,,,,,,,0,90,90,90,,,,,,,,,,,,,,,,,,,,,,,,,,,,,,,,,,,,,,,,,,,,,,,,,,,,,,,,,,,,,,,,,,,,,,,,,,,,,,,,,,,,,,,,,,,,,1315.908710018436,None,1316.4094929392795,None,1316.4094929392795,None,left,1,0.06535480651200487,1316.4094929392795,None,,,,,,,,,,,,,1316.4897854649353,None,,,,,,,,,,,,,,,,,,,,,,,,,,,,,,,,,1306.4176082457825,None,1306.4176082457825,None,1306.9177118440748,None,1315.4193065521586,1315.4193065521586,0.009884816660814977,None,1315.4193065521586,1315.4193065521586,1317.9897726354252,None,1317.9897726354252,None,None,0.007741647026705323,None,,NENA_004,001,2020_Sep_08_1308,test7,3.2.4,100.03439491270947,
140,50,Hundar jagar ofta katter genom trädgård.,3,,4,,inc,1,no,135,136,,,,,,,,,,,,,0,91,91,91,,,,,,,,,,,,,,,,,,,,,,,,,,,,,,,,,,,,,,,,,,,,,,,,,,,,,,,,,,,,,,,,,,,,,,,,,,,,,,,,,,,,,,,,,,,,,1322.489968606189,None,1322.9907399804733,None,1322.9907399804733,None,left,0,1.4599491566523284,1322.9907399804733,None,,,,,,,,,,,,,1324.4614049852908,None,,,,,,,,,,,,,,,,,,,,,,,,,,,,,,,,,1317.9997950485786,None,1317.9997950485786,None,1318.4998899869524,None,1322.0005288965467,1322.0005288965467,0.009885137396850041,None,1322.0005288965467,1322.0005288965467,1325.9612760487157,None,1325.9612760487157,None,None,0.007874753192481876,None,,NENA_004,001,2020_Sep_08_1308,test7,3.2.4,100.03439491270947,
170,38,Stugan var lagom rymligt för familjen.  ,4,,0,,inc,1,no,172,199,,,,,,,,,,,,,0,92,92,92,,,,,,,,,,,,,,,,,,,,,,,,,,,,,,,,,,,,,,,,,,,,,,,,,,,,,,,,,,,,,,,,,,,,,,,,,,,,,,,,,,,,,,,,,,,,,1330.4614774720221,None,1330.9622462804045,None,1330.9622462804045,None,right,1,0.49627463105480274,1330.9622462804045,None,,,,,,,,,,,,,1331.4723023710212,None,,,,,,,,,,,,,,,,,,,,,,,,,,,,,,,,,1325.9713193098232,None,1325.9713193098232,None,1326.4713972490963,None,1329.9720457808235,1329.9720457808235,0.009882250757982547,None,1329.9720457808235,1329.9720457808235,1332.9726160525393,None,1332.9726160525393,None,None,0.007891110816672153,None,,NENA_004,001,2020_Sep_08_1308,test7,3.2.4,100.03439491270947,
150,48,Bolagen accepterar risker men bankerna inte är beredda att ta dem. ,6,,7,,inc,1,no,157,158,,,,,,,,,,,,,0,93,93,93,,,,,,,,,,,,,,,,,,,,,,,,,,,,,,,,,,,,,,,,,,,,,,,,,,,,,,,,,,,,,,,,,,,,,,,,,,,,,,,,,,,,,,,,,,,,,1339.9732803004154,None,1340.474046222158,None,1340.474046222158,None,right,1,0.06436629277231987,1340.474046222158,None,,,,,,,,,,,,,1340.554162983528,None,,,,,,,,,,,,,,,,,,,,,,,,,,,,,,,,,1332.9826333338888,None,1332.9826333338888,None,1333.4827192916055,None,1339.483859835038,1339.483859835038,0.009880326330858225,None,1339.483859835038,1339.483859835038,1342.0543230316648,None,1342.0543230316648,None,None,0.008155077984156378,None,,NENA_004,001,2020_Sep_08_1308,test7,3.2.4,100.03439491270947,
180,14,Flygeln som bandledaren hade bett pianisten att inte använda på konserten var extremt svårstämt och lät väldigt högt. ,14,,0,,inc,1,no,182,199,,,,,,,,,,,,,0,94,94,94,,,,,,,,,,,,,,,,,,,,,,,,,,,,,,,,,,,,,,,,,,,,,,,,,,,,,,,,,,,,,,,,,,,,,,,,,,,,,,,,,,,,,,,,,,,,,1352.5556515274175,None,1353.0564187321106,None,1353.0564187321106,None,right,1,0.36988824213858607,1353.0564187321106,None,,,,,,,,,,,,,1353.4362078277973,None,,,,,,,,,,,,,,,,,,,,,,,,,,,,,,,,,1342.0643534632618,None,1342.0643534632618,None,1342.5643935554808,None,1352.0662272131867,1352.0662272131867,0.009882892233690654,None,1352.0662272131867,1352.0662272131867,1354.9367697603316,None,1354.9367697603316,None,None,0.00800882157182059,None,,NENA_004,001,2020_Sep_08_1308,test7,3.2.4,100.03439491270947,
150,75,Artisten övade sången men gitarristen ville inte spela den.  ,6,,7,,cor,1,no,155,156,,,,,,,,,,,,,0,95,95,95,,,,,,,,,,,,,,,,,,,,,,,,,,,,,,,,,,,,,,,,,,,,,,,,,,,,,,,,,,,,,,,,,,,,,,,,,,,,,,,,,,,,,,,,,,,,,1360.9371992281767,None,1361.4380074873015,None,1361.4380074873015,None,left,1,1.4362338075543448,1361.4380074873015,None,,,,,,,,,,,,,1362.888232837644,None,,,,,,,,,,,,,,,,,,,,,,,,,,,,,,,,,1354.9467726084831,None,1354.9467726084831,None,1355.4468624150522,None,1360.4478201379688,1360.4478201379688,0.009880647069621773,None,1360.4478201379688,1360.4478201379688,1364.3885022573518,None,1364.3885022573518,None,None,0.00829748554406251,None,,NENA_004,001,2020_Sep_08_1308,test7,3.2.4,100.03439491270947,
170,34,Festen var ganska trevligt men slutade för tidigt. ,4,,0,,inc,1,no,172,199,,,,,,,,,,,,,0,96,96,96,,,,,,,,,,,,,,,,,,,,,,,,,,,,,,,,,,,,,,,,,,,,,,,,,,,,,,,,,,,,,,,,,,,,,,,,,,,,,,,,,,,,,,,,,,,,,1369.8889182542116,None,1370.3896880248067,None,1370.3896880248067,None,left,0,0.5004211286641294,1370.3896880248067,None,,,,,,,,,,,,,1370.9005729017654,None,,,,,,,,,,,,,,,,,,,,,,,,,,,,,,,,,1364.3985330096875,None,1364.3985330096875,None,1364.8986468715884,None,1369.3994833556353,1369.3994833556353,0.009880967806566332,None,1369.3994833556353,1369.3994833556353,1372.4000427222677,None,1372.4000427222677,None,None,0.008573640744543809,None,,NENA_004,001,2020_Sep_08_1308,test7,3.2.4,100.03439491270947,
160,54,Löpare runtom i landet påtalar ett allvarligt problem som de flesta deltagare i landets många lopp har inte brytt sig om.,17,,18,,inc,1,no,163,164,,,,,,,,,,,,,0,97,97,97,,,,,,,,,,,,,,,,,,,,,,,,,,,,,,,,,,,,,,,,,,,,,,,,,,,,,,,,,,,,,,,,,,,,,,,,,,,,,,,,,,,,,,,,,,,,,1384.391686220978,None,1384.892385108531,None,1384.892385108531,None,left,0,2.3336525743052334,1384.892385108531,None,,,,,,,,,,,,,1387.2428404919856,None,,,,,,,,,,,,,,,,,,,,,,,,,,,,,,,,,1372.4100837382111,None,1372.4100837382111,None,1372.910152696827,None,1383.9022125131341,1383.9022125131341,0.00988289223278116,None,1383.9022125131341,1383.9022125131341,1388.743167323751,None,1388.743167323751,None,None,0.007804190888236917,None,,NENA_004,001,2020_Sep_08_1308,test7,3.2.4,100.03439491270947,
150,78,Pojken serverade mat som katten ville inte äta.  ,6,,7,,inc,1,no,153,154,,,,,,,,,,,,,0,98,98,98,,,,,,,,,,,,,,,,,,,,,,,,,,,,,,,,,,,,,,,,,,,,,,,,,,,,,,,,,,,,,,,,,,,,,,,,,,,,,,,,,,,,,,,,,,,,,1394.2435021739602,None,1394.7442950376735,None,1394.7442950376735,None,right,1,1.2736101471155052,1394.7442950376735,None,,,,,,,,,,,,,1396.0343545409405,None,,,,,,,,,,,,,,,,,,,,,,,,,,,,,,,,,1388.7531640778852,None,1388.7531640778852,None,1389.2532519600281,None,1393.7540951795681,1393.7540951795681,0.009885778873467643,None,1393.7540951795681,1393.7540951795681,1397.5347836880478,None,1397.5347836880478,None,None,0.007999840913726075,None,,NENA_004,001,2020_Sep_08_1308,test7,3.2.4,100.03439491270947,
180,4,Rummet som hade lånats ut till ett yngre par på genomresa var fruktansvärt stökig när de åkte. ,14,,0,,inc,1,no,182,199,,,,,,,,,,,,,0,99,99,99,,,,,,,,,,,,,,,,,,,,,,,,,,,,,,,,,,,,,,,,,,,,,,,,,,,,,,,,,,,,,,,,,,,,,,,,,,,,,,,,,,,,,,,,,,,,,1407.536025905346,None,1408.0367988833195,None,1408.0367988833195,None,right,1,0.48519827366089885,1408.0367988833195,None,,,,,,,,,,,,,1408.5366285715754,None,,,,,,,,,,,,,,,,,,,,,,,,,,,,,,,,,1397.5448028938245,None,1397.5448028938245,None,1398.0448930211314,None,1407.0466118547238,1407.0466118547238,0.009885137397759536,None,1407.0466118547238,1407.0466118547238,1410.0371664487789,None,1410.0371664487789,None,None,0.006957443233659433,None,,NENA_004,001,2020_Sep_08_1308,test7,3.2.4,100.03439491270947,
180,15,Fönstret som hade morgonsol och vette ut mot gården med de vackra rosenbuskarna var väldigt smutsigt och behövde tvättas omgående. ,16,,0,,cor,1,no,181,199,,,,,,,,,,,,,0,100,100,100,,,,,,,,,,,,,,,,,,,,,,,,,,,,,,,,,,,,,,,,,,,,,,,,,,,,,,,,,,,,,,,,,,,,,,,,,,,,,,,,,,,,,,,,,,,,,1421.5386687843911,None,1422.039467100646,None,1422.039467100646,None,left,1,2.1541176953587637,1422.039467100646,None,,,,,,,,,,,,,1424.2095886474235,None,,,,,,,,,,,,,,,,,,,,,,,,,,,,,,,,,1410.0471529393044,None,1410.0471529393044,None,1410.5472616694015,None,1421.04925729967,1421.04925729967,0.0098825714958366,None,1421.04925729967,1421.04925729967,1425.7100402461724,None,1425.7100402461724,None,None,0.007940825168589072,None,,NENA_004,001,2020_Sep_08_1308,test7,3.2.4,100.03439491270947,
170,30,Leken är särskilt svårt för nybörjare.  ,4,,0,,inc,1,no,172,199,,,,,,,,,,,,,0,101,101,101,,,,,,,,,,,,,,,,,,,,,,,,,,,,,,,,,,,,,,,,,,,,,,,,,,,,,,,,,,,,,,,,,,,,,,,,,,,,,,,,,,,,,,,,,,,,,1430.2103279479325,None,1430.711089379347,None,1430.711089379347,None,right,1,1.3705563388684823,1430.711089379347,None,,,,,,,,,,,,,1432.0914978196251,None,,,,,,,,,,,,,,,,,,,,,,,,,,,,,,,,,1425.7201014685943,None,1425.7201014685943,None,1426.2202534982862,None,1429.7209113314084,1429.7209113314084,0.009881930020128493,None,1429.7209113314084,1429.7209113314084,1433.5916213036576,None,1433.5916213036576,None,None,0.008115627240840695,None,,NENA_004,001,2020_Sep_08_1308,test7,3.2.4,100.03439491270947,
160,31,Bondsonen i granngården sätter en ny sorts potatis som de något äldre bönderna i samhället inte vill använda.,16,,17,,cor,1,no,161,162,,,,,,,,,,,,,0,102,102,102,,,,,,,,,,,,,,,,,,,,,,,,,,,,,,,,,,,,,,,,,,,,,,,,,,,,,,,,,,,,,,,,,,,,,,,,,,,,,,,,,,,,,,,,,,,,,1444.0929610252315,None,1444.5936458003243,None,1444.5936458003243,None,left,1,1.239970851353064,1444.5936458003243,None,,,,,,,,,,,,,1445.844127548422,None,,,,,,,,,,,,,,,,,,,,,,,,,,,,,,,,,1433.6016494900914,None,1433.6016494900914,None,1434.101636019106,None,1443.603519391163,1443.603519391163,0.00988642034917575,None,1443.603519391163,1443.603519391163,1447.3442157513023,None,1447.3442157513023,None,None,0.008099269614831428,None,,NENA_004,001,2020_Sep_08_1308,test7,3.2.4,100.03439491270947,
160,20,Ordningsvakten med det långa håret stängde den enda öppna dörren som den väldigt glömska kollegan från nattskiftet hade inte stängt.,18,,19,,inc,1,no,163,164,,,,,,,,,,,,,0,103,103,103,,,,,,,,,,,,,,,,,,,,,,,,,,,,,,,,,,,,,,,,,,,,,,,,,,,,,,,,,,,,,,,,,,,,,,,,,,,,,,,,,,,,,,,,,,,,,1458.8557065018676,None,1459.3565378541107,None,1459.3565378541107,None,right,1,0.7088272160090128,1459.3565378541107,None,,,,,,,,,,,,,1460.0768080307598,None,,,,,,,,,,,,,,,,,,,,,,,,,,,,,,,,,1447.3542295045372,None,1447.3542295045372,None,1447.8543282917635,None,1458.3663277323967,1458.3663277323967,0.009886099611321697,None,1458.3663277323967,1458.3663277323967,1461.5769170815943,None,1461.5769170815943,None,None,0.008129098226163478,None,,NENA_004,001,2020_Sep_08_1308,test7,3.2.4,100.03439491270947,
170,84,Förklädet var högt värderad under 1800-talet.  ,4,,0,,inc,1,no,174,199,,,,,,,,,,,,,0,104,104,104,,,,,,,,,,,,,,,,,,,,,,,,,,,,,,,,,,,,,,,,,,,,,,,,,,,,,,,,,,,,,,,,,,,,,,,,,,,,,,,,,,,,,,,,,,,,,1466.07707296014,None,1466.5778562017213,None,1466.5778562017213,None,right,1,1.2633603308986494,1466.5778562017213,None,,,,,,,,,,,,,1467.8578766134715,None,,,,,,,,,,,,,,,,,,,,,,,,,,,,,,,,,1461.5868904218723,None,1461.5868904218723,None,1462.0864029004952,None,1465.587679757471,1465.587679757471,0.009879684855150117,None,1465.587679757471,1465.587679757471,1469.3583564371424,None,1469.3583564371424,None,None,0.00820928266239207,None,,NENA_004,001,2020_Sep_08_1308,test7,3.2.4,100.03439491270947,
170,89,Draken är för bred för den starka vinden. ,4,,0,,cor,1,no,171,199,,,,,,,,,,,,,0,105,105,105,,,,,,,,,,,,,,,,,,,,,,,,,,,,,,,,,,,,,,,,,,,,,,,,,,,,,,,,,,,,,,,,,,,,,,,,,,,,,,,,,,,,,,,,,,,,,1474.85876409482,None,1475.3595508645167,None,1475.3595508645167,None,left,1,1.1697706596805801,1475.3595508645167,None,,,,,,,,,,,,,1476.539569415988,None,,,,,,,,,,,,,,,,,,,,,,,,,,,,,,,,,1469.3683509461125,None,1469.3683509461125,None,1469.868383019887,None,1474.3693285547688,1474.3693285547688,0.009882571494927106,None,1474.3693285547688,1474.3693285547688,1478.0400065815388,None,1478.0400065815388,None,None,0.008567225991100713,None,,NENA_004,001,2020_Sep_08_1308,test7,3.2.4,100.03439491270947,
170,96,Skämtet är ganska komisk men kan inte visas på teve.,4,,0,,inc,1,no,174,199,,,,,,,,,,,,,0,106,106,106,,,,,,,,,,,,,,,,,,,,,,,,,,,,,,,,,,,,,,,,,,,,,,,,,,,,,,,,,,,,,,,,,,,,,,,,,,,,,,,,,,,,,,,,,,,,,1484.530570476988,None,1485.0313585296353,None,1485.0313585296353,None,right,1,1.3536438374085265,1485.0313585296353,None,,,,,,,,,,,,,1486.4016027906746,None,,,,,,,,,,,,,,,,,,,,,,,,,,,,,,,,,1478.0500424656775,None,1478.0500424656775,None,1478.550133555198,None,1484.0411641240717,1484.0411641240717,0.009881930021037988,None,1484.0411641240717,1484.0411641240717,1487.9018882472706,None,1487.9018882472706,None,None,0.007861282206249598,None,,NENA_004,001,2020_Sep_08_1308,test7,3.2.4,100.03439491270947,
150,102,Flickan köpte godis som vännen kunde inte äta.  ,6,,7,,inc,1,no,153,154,,,,,,,,,,,,,0,107,107,107,,,,,,,,,,,,,,,,,,,,,,,,,,,,,,,,,,,,,,,,,,,,,,,,,,,,,,,,,,,,,,,,,,,,,,,,,,,,,,,,,,,,,,,,,,,,,1493.4022593408454,None,1493.9030294321783,None,1493.9030294321783,None,left,0,0.6739402504063037,1493.9030294321783,None,,,,,,,,,,,,,1494.5929183671115,None,,,,,,,,,,,,,,,,,,,,,,,,,,,,,,,,,1487.911893661324,None,1487.911893661324,None,1488.4119003968162,None,1492.9128449694854,1492.9128449694854,0.009883854446343321,None,1492.9128449694854,1492.9128449694854,1496.0934090958658,None,1496.0934090958658,None,None,0.007994067633262603,None,,NENA_004,001,2020_Sep_08_1308,test7,3.2.4,100.03439491270947,
