trig_exp,trig_item,sentence,trig_w1,trig1,trig_w2,trig2,gram,task,paus,trig_1,trig_2,prac_trials.thisRepN,prac_trials.thisTrialN,prac_trials.thisN,prac_trials.thisIndex,trials_2.thisRepN,trials_2.thisTrialN,trials_2.thisN,trials_2.thisIndex,trials.thisRepN,trials.thisTrialN,trials.thisN,trials.thisIndex,exp_trials.thisRepN,exp_trials.thisTrialN,exp_trials.thisN,exp_trials.thisIndex,grating_1.started,grating_1.stopped,text_1.started,text_1.stopped,key_resp_1.keys,key_resp_1.rt,key_resp_1.started,key_resp_1.stopped,grating_2.started,grating_2.stopped,text_2.started,text_2.stopped,key_resp_2.keys,key_resp_2.rt,key_resp_2.started,key_resp_2.stopped,grating_3.started,grating_3.stopped,text_3.started,text_3.stopped,key_resp_3.keys,key_resp_3.rt,key_resp_3.started,key_resp_3.stopped,grating_4.started,grating_4.stopped,text_4.started,text_4.stopped,key_resp_4.keys,key_resp_4.rt,key_resp_4.started,key_resp_4.stopped,grating_5.started,grating_5.stopped,text_5.started,text_5.stopped,key_resp_5.keys,key_resp_5.rt,key_resp_5.started,key_resp_5.stopped,grating_6.started,grating_6.stopped,text_6.started,text_6.stopped,key_resp_6.keys,key_resp_6.rt,key_resp_6.started,key_resp_6.stopped,grating_7.started,grating_7.stopped,text_7.started,text_7.stopped,key_resp_7.keys,key_resp_7.rt,key_resp_7.started,key_resp_7.stopped,grating_8.started,grating_8.stopped,text_8.started,text_8.stopped,key_resp_8.keys,key_resp_8.rt,key_resp_8.started,key_resp_8.stopped,grating_9.started,grating_9.stopped,text_9.started,text_9.stopped,key_resp_9.keys,key_resp_9.rt,key_resp_9.started,key_resp_9.stopped,grating.started,grating.stopped,text.started,text.stopped,key_resp.keys,key_resp.rt,key_resp.started,key_resp.stopped,grating_14.started,grating_14.stopped,text_fix_4.started,text_fix_4.stopped,grating_16.started,grating_16.stopped,grating_40.started,grating_40.stopped,ISI_4.started,ISI_4.stopped,text_19.started,text_19.stopped,grating_24.started,grating_24.stopped,grating_35.started,grating_35.stopped,prompt.started,prompt.stopped,Button_Press.keys,Button_Press.corr,Button_Press.rt,Button_Press.started,Button_Press.stopped,grating_33.started,grating_33.stopped,grating_34.started,grating_34.stopped,Correct_Incorrect.started,Correct_Incorrect.stopped,Continue_text.started,Continue_text.stopped,Press_Bar.keys,Press_Bar.rt,Press_Bar.started,Press_Bar.stopped,grating_26.started,grating_26.stopped,grating_27.started,grating_27.stopped,text_10.started,text_10.stopped,key_resp_11.keys,key_resp_11.rt,key_resp_11.started,key_resp_11.stopped,grating_28.started,grating_28.stopped,text_11.started,text_11.stopped,key_resp_12.keys,key_resp_12.rt,key_resp_12.started,key_resp_12.stopped,grating_29.started,grating_29.stopped,text_12.started,text_12.stopped,key_resp_13.keys,key_resp_13.rt,key_resp_13.started,key_resp_13.stopped,grating_36.started,grating_36.stopped,text_14.started,text_14.stopped,key_resp_14.keys,key_resp_14.rt,key_resp_14.started,key_resp_14.stopped,grating_10.started,grating_10.stopped,text_fix.started,text_fix.stopped,grating_11.started,grating_11.stopped,grating_37.started,grating_37.stopped,ISI_2.started,ISI_2.stopped,text_15.started,text_15.stopped,grating_38.started,grating_38.stopped,text_fix_3.started,text_fix_3.stopped,key_resp_16.keys,key_resp_16.started,key_resp_16.stopped,key_resp_16.rt,participant,session,date,expName,psychopyVersion,frameRate,
,,,,,,,,,,,,,,,,,,,,,,,,,,,,11.032358609691983,None,11.032358609691983,None,space,29.354798721295083,11.032358609691983,None,,,,,,,,,,,,,,,,,,,,,,,,,,,,,,,,,,,,,,,,,,,,,,,,,,,,,,,,,,,,,,,,,,,,,,,,,,,,,,,,,,,,,,,,,,,,,,,,,,,,,,,,,,,,,,,,,,,,,,,,,,,,,,,,,,,,,,,,,,,,,,,,,,,,,,,,,,,,,,,,,,NENA_006,001,2020_Sep_10_1330,test7,3.2.4,100.03436249695994,
,,,,,,,,,,,,,,,,,,,,,,,,,,,,,,,,,,,,40.39810529145052,None,40.39810529145052,None,space,6.956730955812418,40.39810529145052,None,,,,,,,,,,,,,,,,,,,,,,,,,,,,,,,,,,,,,,,,,,,,,,,,,,,,,,,,,,,,,,,,,,,,,,,,,,,,,,,,,,,,,,,,,,,,,,,,,,,,,,,,,,,,,,,,,,,,,,,,,,,,,,,,,,,,,,,,,,,,,,,,,,,,,,,,,,NENA_006,001,2020_Sep_10_1330,test7,3.2.4,100.03436249695994,
,,,,,,,,,,,,,,,,,,,,,,,,,,,,,,,,,,,,,,,,,,,,47.36922665395741,None,47.36922665395741,None,space,6.689515276757447,47.36922665395741,None,,,,,,,,,,,,,,,,,,,,,,,,,,,,,,,,,,,,,,,,,,,,,,,,,,,,,,,,,,,,,,,,,,,,,,,,,,,,,,,,,,,,,,,,,,,,,,,,,,,,,,,,,,,,,,,,,,,,,,,,,,,,,,,,,,,,,,,,,,,,,,,,,,NENA_006,001,2020_Sep_10_1330,test7,3.2.4,100.03436249695994,
,,,,,,,,,,,,,,,,,,,,,,,,,,,,,,,,,,,,,,,,,,,,,,,,,,,,54.07057351545518,None,54.07057351545518,None,space,5.100014721725529,54.07057351545518,None,,,,,,,,,,,,,,,,,,,,,,,,,,,,,,,,,,,,,,,,,,,,,,,,,,,,,,,,,,,,,,,,,,,,,,,,,,,,,,,,,,,,,,,,,,,,,,,,,,,,,,,,,,,,,,,,,,,,,,,,,,,,,,,,,,,,,,,,,,NENA_006,001,2020_Sep_10_1330,test7,3.2.4,100.03436249695994,
,,,,,,,,,,,,,,,,,,,,,,,,,,,,,,,,,,,,,,,,,,,,,,,,,,,,,,,,,,,,59.18144831631889,None,59.18144831631889,None,space,4.4450416169393066,59.18144831631889,None,,,,,,,,,,,,,,,,,,,,,,,,,,,,,,,,,,,,,,,,,,,,,,,,,,,,,,,,,,,,,,,,,,,,,,,,,,,,,,,,,,,,,,,,,,,,,,,,,,,,,,,,,,,,,,,,,,,,,,,,,,,,,,,,,,NENA_006,001,2020_Sep_10_1330,test7,3.2.4,100.03436249695994,
,,,,,,,,,,,,,,,,,,,,,,,,,,,,,,,,,,,,,,,,,,,,,,,,,,,,,,,,,,,,,,,,,,,,63.6421632790134,None,63.6421632790134,None,space,38.47965691643731,63.6421632790134,None,,,,,,,,,,,,,,,,,,,,,,,,,,,,,,,,,,,,,,,,,,,,,,,,,,,,,,,,,,,,,,,,,,,,,,,,,,,,,,,,,,,,,,,,,,,,,,,,,,,,,,,,,,,,,,,,,,,,,,,,,,NENA_006,001,2020_Sep_10_1330,test7,3.2.4,100.03436249695994,
,,,,,,,,,,,,,,,,,,,,,,,,,,,,,,,,,,,,,,,,,,,,,,,,,,,,,,,,,,,,,,,,,,,,,,,,,,,,102.1391911903147,None,102.1391911903147,None,space,2.1825696050573242,102.1391911903147,None,,,,,,,,,,,,,,,,,,,,,,,,,,,,,,,,,,,,,,,,,,,,,,,,,,,,,,,,,,,,,,,,,,,,,,,,,,,,,,,,,,,,,,,,,,,,,,,,,,,,,,,,,,,,,,,,,,NENA_006,001,2020_Sep_10_1330,test7,3.2.4,100.03436249695994,
,,,,,,,,,,,,,,,,,,,,,,,,,,,,,,,,,,,,,,,,,,,,,,,,,,,,,,,,,,,,,,,,,,,,,,,,,,,,,,,,,,,,104.33958915801031,None,104.33958915801031,None,space,2.0862815005639277,104.33958915801031,None,,,,,,,,,,,,,,,,,,,,,,,,,,,,,,,,,,,,,,,,,,,,,,,,,,,,,,,,,,,,,,,,,,,,,,,,,,,,,,,,,,,,,,,,,,,,,,,,,,,,,,,,,,NENA_006,001,2020_Sep_10_1330,test7,3.2.4,100.03436249695994,
,,,,,,,,,,,,,,,,,,,,,,,,,,,,,,,,,,,,,,,,,,,,,,,,,,,,,,,,,,,,,,,,,,,,,,,,,,,,,,,,,,,,,,,,,,,,106.43990569114976,None,106.43990569114976,None,space,1.3937429779134618,106.43990569114976,None,,,,,,,,,,,,,,,,,,,,,,,,,,,,,,,,,,,,,,,,,,,,,,,,,,,,,,,,,,,,,,,,,,,,,,,,,,,,,,,,,,,,,,,,,,,,,,,,,,NENA_006,001,2020_Sep_10_1330,test7,3.2.4,100.03436249695994,
,,,,,,,,,,,,,,,,,,,,,,,,,,,,,,,,,,,,,,,,,,,,,,,,,,,,,,,,,,,,,,,,,,,,,,,,,,,,,,,,,,,,,,,,,,,,,,,,,,,,107.85010973940007,None,107.85010973940007,None,space,2.9516049727999416,107.85010973940007,None,,,,,,,,,,,,,,,,,,,,,,,,,,,,,,,,,,,,,,,,,,,,,,,,,,,,,,,,,,,,,,,,,,,,,,,,,,,,,,,,,,,,,,,,,,NENA_006,001,2020_Sep_10_1330,test7,3.2.4,100.03436249695994,
199,1,Meningarna presenteras ord för ord.,99,99,99,99,cor,1,no,,,0,0,0,0,0,0,0,0,0,0,0,0,,,,,,,,,,,,,,,,,,,,,,,,,,,,,,,,,,,,,,,,,,,,,,,,,,,,,,,,,,,,,,,,,,,,,,,,,,,,,,,,,,,,,110.87009857141584,None,110.87009857141584,None,111.3308292501124,None,114.34130091945099,114.34130091945099,0.009885751069305115,None,114.34130091945099,114.34130091945099,114.83080214802521,None,115.34127782654741,None,115.34127782654741,None,left,1,3.6122695159883733,115.34127782654741,None,118.9719597631829,None,119.30193553808567,None,119.30193553808567,None,119.30193553808567,None,space,11.11532275058289,119.30193553808567,None,,,,,,,,,,,,,,,,,,,,,,,,,,,,,,,,,,,,,,,,,,,,,,,,,,,,,,,NENA_006,001,2020_Sep_10_1330,test7,3.2.4,100.03436249695994,
199,1,Meningarna presenteras ord för ord.,99,99,99,99,cor,1,no,,,0,0,0,0,0,0,0,0,,,,,,,,,,,,,,,,,,,,,,,,,,,,,,,,,,,,,,,,,,,,,,,,,,,,,,,,,,,,,,,,,,,,,,,,,,,,,,,,,,,,,,,,,,,,,,,,,,,,,,,,,,,,,,,,,,,,,,,,,,,,,,,,,,,,,,,,,,,,,,,,,,,,,,,,,,,,,,,,,,,,,,,,,,,,,,,,,,NENA_006,001,2020_Sep_10_1330,test7,3.2.4,100.03436249695994,
199,1,Meningarna presenteras ord för ord.,99,99,99,99,cor,1,no,,,0,0,0,0,,,,,,,,,,,,,,,,,,,,,,,,,,,,,,,,,,,,,,,,,,,,,,,,,,,,,,,,,,,,,,,,,,,,,,,,,,,,,,,,,,,,,,,,,,,,,,,,,,,,,,,,,,,,,,,,,,,,,,,,,,,,,,,,130.4346870157915,None,,,,,,,,,,,,,,,,,,,,,,,,,,,,,,,,,,,,,,,,,,,,,,,,,,,,,NENA_006,001,2020_Sep_10_1330,test7,3.2.4,100.03436249695994,
199,2,Läs meningen noggrant och ange ditt svar när du ser frågetecknet.,99,99,99,99,cor,1,no,,,0,1,1,1,0,0,0,0,0,0,0,0,,,,,,,,,,,,,,,,,,,,,,,,,,,,,,,,,,,,,,,,,,,,,,,,,,,,,,,,,,,,,,,,,,,,,,,,,,,,,,,,,,,,,131.93456048592634,None,131.93456048592634,None,132.43465718745756,None,138.4357037449954,138.4357037449954,0.009892486498756625,None,138.4357037449954,138.4357037449954,138.92513152530864,None,139.42570131061893,None,139.42570131061893,None,left,1,0.9114666206523907,139.42570131061893,None,140.35691172192583,None,140.65647093613825,None,140.65647093613825,None,140.65647093613825,None,space,1.3286280474212617,140.65647093613825,None,,,,,,,,,,,,,,,,,,,,,,,,,,,,,,,,,,,,,,,,,,,,,,,,,,,,,,,NENA_006,001,2020_Sep_10_1330,test7,3.2.4,100.03436249695994,
199,2,Läs meningen noggrant och ange ditt svar när du ser frågetecknet.,99,99,99,99,cor,1,no,,,0,1,1,1,0,0,0,0,,,,,,,,,,,,,,,,,,,,,,,,,,,,,,,,,,,,,,,,,,,,,,,,,,,,,,,,,,,,,,,,,,,,,,,,,,,,,,,,,,,,,,,,,,,,,,,,,,,,,,,,,,,,,,,,,,,,,,,,,,,,,,,,,,,,,,,,,,,,,,,,,,,,,,,,,,,,,,,,,,,,,,,,,,,,,,,,,,NENA_006,001,2020_Sep_10_1330,test7,3.2.4,100.03436249695994,
199,2,Läs meningen noggrant och ange ditt svar när du ser frågetecknet.,99,99,99,99,cor,1,no,,,0,1,1,1,,,,,,,,,,,,,,,,,,,,,,,,,,,,,,,,,,,,,,,,,,,,,,,,,,,,,,,,,,,,,,,,,,,,,,,,,,,,,,,,,,,,,,,,,,,,,,,,,,,,,,,,,,,,,,,,,,,,,,,,,,,,,,,,141.99719292933787,None,,,,,,,,,,,,,,,,,,,,,,,,,,,,,,,,,,,,,,,,,,,,,,,,,,,,,NENA_006,001,2020_Sep_10_1330,test7,3.2.4,100.03436249695994,
199,3,I den här meningen finns det en misstag.,99,99,99,99,inc,1,no,,,0,2,2,2,0,0,0,0,0,0,0,0,,,,,,,,,,,,,,,,,,,,,,,,,,,,,,,,,,,,,,,,,,,,,,,,,,,,,,,,,,,,,,,,,,,,,,,,,,,,,,,,,,,,,143.49656926058833,None,143.49656926058833,None,143.9966621133026,None,148.4975102963881,148.4975102963881,0.009893769438349409,None,148.4975102963881,148.4975102963881,148.98694256698855,None,149.48766309763778,None,149.48766309763778,None,right,1,1.0812478891648425,149.48766309763778,None,150.58831544007535,None,150.88775822756907,None,150.88775822756907,None,150.88775822756907,None,space,33.78457977812195,150.88775822756907,None,,,,,,,,,,,,,,,,,,,,,,,,,,,,,,,,,,,,,,,,,,,,,,,,,,,,,,,NENA_006,001,2020_Sep_10_1330,test7,3.2.4,100.03436249695994,
199,3,I den här meningen finns det en misstag.,99,99,99,99,inc,1,no,,,0,2,2,2,0,0,0,0,,,,,,,,,,,,,,,,,,,,,,,,,,,,,,,,,,,,,,,,,,,,,,,,,,,,,,,,,,,,,,,,,,,,,,,,,,,,,,,,,,,,,,,,,,,,,,,,,,,,,,,,,,,,,,,,,,,,,,,,,,,,,,,,,,,,,,,,,,,,,,,,,,,,,,,,,,,,,,,,,,,,,,,,,,,,,,,,,,NENA_006,001,2020_Sep_10_1330,test7,3.2.4,100.03436249695994,
199,3,I den här meningen finns det en misstag.,99,99,99,99,inc,1,no,,,0,2,2,2,,,,,,,,,,,,,,,,,,,,,,,,,,,,,,,,,,,,,,,,,,,,,,,,,,,,,,,,,,,,,,,,,,,,,,,,,,,,,,,,,,,,,,,,,,,,,,,,,,,,,,,,,,,,,,,,,,,,,,,,,,,,,,,,184.68482870037315,None,,,,,,,,,,,,,,,,,,,,,,,,,,,,,,,,,,,,,,,,,,,,,,,,,,,,,NENA_006,001,2020_Sep_10_1330,test7,3.2.4,100.03436249695994,
199,4,I det här meningen finns det ett till misstag.,99,99,99,99,inc,1,no,,,0,3,3,3,0,0,0,0,0,0,0,0,,,,,,,,,,,,,,,,,,,,,,,,,,,,,,,,,,,,,,,,,,,,,,,,,,,,,,,,,,,,,,,,,,,,,,,,,,,,,,,,,,,,,186.18428489457983,None,186.18428489457983,None,186.6843366932444,None,191.68527837051352,191.68527837051352,0.009897297521092696,None,191.68527837051352,191.68527837051352,192.17470615082675,None,192.6754488121751,None,192.6754488121751,None,right,1,0.5167014610433398,192.6754488121751,None,193.20636587946592,None,193.50547189545614,None,193.50547189545614,None,193.50547189545614,None,space,1.23059482507324,193.50547189545614,None,,,,,,,,,,,,,,,,,,,,,,,,,,,,,,,,,,,,,,,,,,,,,,,,,,,,,,,NENA_006,001,2020_Sep_10_1330,test7,3.2.4,100.03436249695994,
199,4,I det här meningen finns det ett till misstag.,99,99,99,99,inc,1,no,,,0,3,3,3,0,0,0,0,,,,,,,,,,,,,,,,,,,,,,,,,,,,,,,,,,,,,,,,,,,,,,,,,,,,,,,,,,,,,,,,,,,,,,,,,,,,,,,,,,,,,,,,,,,,,,,,,,,,,,,,,,,,,,,,,,,,,,,,,,,,,,,,,,,,,,,,,,,,,,,,,,,,,,,,,,,,,,,,,,,,,,,,,,,,,,,,,,NENA_006,001,2020_Sep_10_1330,test7,3.2.4,100.03436249695994,
199,4,I det här meningen finns det ett till misstag.,99,99,99,99,inc,1,no,,,0,3,3,3,,,,,,,,,,,,,,,,,,,,,,,,,,,,,,,,,,,,,,,,,,,,,,,,,,,,,,,,,,,,,,,,,,,,,,,,,,,,,,,,,,,,,,,,,,,,,,,,,,,,,,,,,,,,,,,,,,,,,,,,,,,,,,,,194.76584373609876,None,,,,,,,,,,,,,,,,,,,,,,,,,,,,,,,,,,,,,,,,,,,,,,,,,,,,,NENA_006,001,2020_Sep_10_1330,test7,3.2.4,100.03436249695994,
199,5,Ibland kan meningarna låta lite märkliga men ändå vara grammatiskt korrekta.,99,99,99,99,cor,1,no,,,0,4,4,4,0,0,0,0,0,0,0,0,,,,,,,,,,,,,,,,,,,,,,,,,,,,,,,,,,,,,,,,,,,,,,,,,,,,,,,,,,,,,,,,,,,,,,,,,,,,,,,,,,,,,196.26612133203707,None,196.26612133203707,None,196.76580236131394,None,202.7672815900496,202.7672815900496,0.009894410908600548,None,202.7672815900496,202.7672815900496,203.2566602979441,None,203.75746903065283,None,203.75746903065283,None,left,1,0.3864395265827625,203.75746903065283,None,204.16751335299068,None,204.46730894872508,None,204.46730894872508,None,204.46730894872508,None,space,2.4205711580552816,204.46730894872508,None,,,,,,,,,,,,,,,,,,,,,,,,,,,,,,,,,,,,,,,,,,,,,,,,,,,,,,,NENA_006,001,2020_Sep_10_1330,test7,3.2.4,100.03436249695994,
199,5,Ibland kan meningarna låta lite märkliga men ändå vara grammatiskt korrekta.,99,99,99,99,cor,1,no,,,0,4,4,4,0,0,0,0,,,,,,,,,,,,,,,,,,,,,,,,,,,,,,,,,,,,,,,,,,,,,,,,,,,,,,,,,,,,,,,,,,,,,,,,,,,,,,,,,,,,,,,,,,,,,,,,,,,,,,,,,,,,,,,,,,,,,,,,,,,,,,,,,,,,,,,,,,,,,,,,,,,,,,,,,,,,,,,,,,,,,,,,,,,,,,,,,,NENA_006,001,2020_Sep_10_1330,test7,3.2.4,100.03436249695994,
199,5,Ibland kan meningarna låta lite märkliga men ändå vara grammatiskt korrekta.,99,99,99,99,cor,1,no,,,0,4,4,4,,,,,,,,,,,,,,,,,,,,,,,,,,,,,,,,,,,,,,,,,,,,,,,,,,,,,,,,,,,,,,,,,,,,,,,,,,,,,,,,,,,,,,,,,,,,,,,,,,,,,,,,,,,,,,,,,,,,,,,,,,,,,,,,206.89864332401885,None,,,,,,,,,,,,,,,,,,,,,,,,,,,,,,,,,,,,,,,,,,,,,,,,,,,,,NENA_006,001,2020_Sep_10_1330,test7,3.2.4,100.03436249695994,
199,6,De gröna idéerna missade bussen i morse.,99,99,99,99,cor,1,no,,,0,5,5,5,0,0,0,0,0,0,0,0,,,,,,,,,,,,,,,,,,,,,,,,,,,,,,,,,,,,,,,,,,,,,,,,,,,,,,,,,,,,,,,,,,,,,,,,,,,,,,,,,,,,,208.39816206150408,None,208.39816206150408,None,208.89824144335853,None,212.89906509023422,212.89906509023422,0.009895052377942193,None,212.89906509023422,212.89906509023422,213.38850986949,None,213.88922494764847,None,213.88922494764847,None,right,0,1.6865038980504323,213.88922494764847,None,215.58924332575043,None,215.90959224668677,None,215.90959224668677,None,215.90959224668677,None,space,9.12997808419368,215.90959224668677,None,,,,,,,,,,,,,,,,,,,,,,,,,,,,,,,,,,,,,,,,,,,,,,,,,,,,,,,NENA_006,001,2020_Sep_10_1330,test7,3.2.4,100.03436249695994,
199,6,De gröna idéerna missade bussen i morse.,99,99,99,99,cor,1,no,,,0,5,5,5,0,0,0,0,,,,,,,,,,,,,,,,,,,,,,,,,,,,,,,,,,,,,,,,,,,,,,,,,,,,,,,,,,,,,,,,,,,,,,,,,,,,,,,,,,,,,,,,,,,,,,,,,,,,,,,,,,,,,,,,,,,,,,,,,,,,,,,,,,,,,,,,,,,,,,,,,,,,,,,,,,,,,,,,,,,,,,,,,,,,,,,,,,NENA_006,001,2020_Sep_10_1330,test7,3.2.4,100.03436249695994,
199,6,De gröna idéerna missade bussen i morse.,99,99,99,99,cor,1,no,,,0,5,5,5,,,,,,,,,,,,,,,,,,,,,,,,,,,,,,,,,,,,,,,,,,,,,,,,,,,,,,,,,,,,,,,,,,,,,,,,,,,,,,,,,,,,,,,,,,,,,,,,,,,,,,,,,,,,,,,,,,,,,,,,,,,,,,,,225.05124251044253,None,,,,,,,,,,,,,,,,,,,,,,,,,,,,,,,,,,,,,,,,,,,,,,,,,,,,,NENA_006,001,2020_Sep_10_1330,test7,3.2.4,100.03436249695994,
199,7,Det bruna bordet är mer än hundra år gamla.,99,99,99,99,inc,1,no,,,0,6,6,6,0,0,0,0,0,0,0,0,,,,,,,,,,,,,,,,,,,,,,,,,,,,,,,,,,,,,,,,,,,,,,,,,,,,,,,,,,,,,,,,,,,,,,,,,,,,,,,,,,,,,226.55154608589783,None,226.55154608589783,None,227.05159563941834,None,232.05254758020055,232.05254758020055,0.009891524295198906,None,232.05254758020055,232.05254758020055,232.54195836157214,None,233.0427324549264,None,233.0427324549264,None,right,1,0.7325687871834816,233.0427324549264,None,233.79246824966413,None,234.1125634694008,None,234.1125634694008,None,234.1125634694008,None,space,1.6067724428539805,234.1125634694008,None,,,,,,,,,,,,,,,,,,,,,,,,,,,,,,,,,,,,,,,,,,,,,,,,,,,,,,,NENA_006,001,2020_Sep_10_1330,test7,3.2.4,100.03436249695994,
199,7,Det bruna bordet är mer än hundra år gamla.,99,99,99,99,inc,1,no,,,0,6,6,6,0,0,0,0,,,,,,,,,,,,,,,,,,,,,,,,,,,,,,,,,,,,,,,,,,,,,,,,,,,,,,,,,,,,,,,,,,,,,,,,,,,,,,,,,,,,,,,,,,,,,,,,,,,,,,,,,,,,,,,,,,,,,,,,,,,,,,,,,,,,,,,,,,,,,,,,,,,,,,,,,,,,,,,,,,,,,,,,,,,,,,,,,,NENA_006,001,2020_Sep_10_1330,test7,3.2.4,100.03436249695994,
199,7,Det bruna bordet är mer än hundra år gamla.,99,99,99,99,inc,1,no,,,0,6,6,6,,,,,,,,,,,,,,,,,,,,,,,,,,,,,,,,,,,,,,,,,,,,,,,,,,,,,,,,,,,,,,,,,,,,,,,,,,,,,,,,,,,,,,,,,,,,,,,,,,,,,,,,,,,,,,,,,,,,,,,,,,,,,,,,235.7337429971576,None,,,,,,,,,,,,,,,,,,,,,,,,,,,,,,,,,,,,,,,,,,,,,,,,,,,,,NENA_006,001,2020_Sep_10_1330,test7,3.2.4,100.03436249695994,
199,8,På våren gilla alla att tillbringa tid i solen.,99,99,99,99,inc,1,no,,,0,7,7,7,0,0,0,0,0,0,0,0,,,,,,,,,,,,,,,,,,,,,,,,,,,,,,,,,,,,,,,,,,,,,,,,,,,,,,,,,,,,,,,,,,,,,,,,,,,,,,,,,,,,,237.23347181591362,None,237.23347181591362,None,237.73356595156747,None,242.73436618480537,242.73436618480537,0.009896976786876621,None,242.73436618480537,242.73436618480537,243.22385811207187,None,243.72463348836573,None,243.72463348836573,None,right,1,0.7465794439158344,243.72463348836573,None,244.48531339474994,None,244.7846041539642,None,244.7846041539642,None,244.7846041539642,None,space,1.1266706672986402,244.7846041539642,None,,,,,,,,,,,,,,,,,,,,,,,,,,,,,,,,,,,,,,,,,,,,,,,,,,,,,,,NENA_006,001,2020_Sep_10_1330,test7,3.2.4,100.03436249695994,
199,8,På våren gilla alla att tillbringa tid i solen.,99,99,99,99,inc,1,no,,,0,7,7,7,0,0,0,0,,,,,,,,,,,,,,,,,,,,,,,,,,,,,,,,,,,,,,,,,,,,,,,,,,,,,,,,,,,,,,,,,,,,,,,,,,,,,,,,,,,,,,,,,,,,,,,,,,,,,,,,,,,,,,,,,,,,,,,,,,,,,,,,,,,,,,,,,,,,,,,,,,,,,,,,,,,,,,,,,,,,,,,,,,,,,,,,,,NENA_006,001,2020_Sep_10_1330,test7,3.2.4,100.03436249695994,
199,8,På våren gilla alla att tillbringa tid i solen.,99,99,99,99,inc,1,no,,,0,7,7,7,,,,,,,,,,,,,,,,,,,,,,,,,,,,,,,,,,,,,,,,,,,,,,,,,,,,,,,,,,,,,,,,,,,,,,,,,,,,,,,,,,,,,,,,,,,,,,,,,,,,,,,,,,,,,,,,,,,,,,,,,,,,,,,,245.93504736129944,None,,,,,,,,,,,,,,,,,,,,,,,,,,,,,,,,,,,,,,,,,,,,,,,,,,,,,NENA_006,001,2020_Sep_10_1330,test7,3.2.4,100.03436249695994,
199,9,Tidningen avskedade dem journalist som publicerade falska fakta.,99,99,99,99,inc,1,no,,,0,8,8,8,0,0,0,0,0,0,0,0,,,,,,,,,,,,,,,,,,,,,,,,,,,,,,,,,,,,,,,,,,,,,,,,,,,,,,,,,,,,,,,,,,,,,,,,,,,,,,,,,,,,,247.43530827903032,None,247.43530827903032,None,247.9353453238955,None,252.43621050592446,252.43621050592446,0.009895373112158268,None,252.43621050592446,252.43621050592446,252.92558632720556,None,253.4263540058655,None,253.4263540058655,None,right,1,0.6766313612524755,253.4263540058655,None,254.11737288719996,None,254.4164981472759,None,254.4164981472759,None,254.4164981472759,None,space,1.7743855443559369,254.4164981472759,None,,,,,,,,,,,,,,,,,,,,,,,,,,,,,,,,,,,,,,,,,,,,,,,,,,,,,,,NENA_006,001,2020_Sep_10_1330,test7,3.2.4,100.03436249695994,
199,9,Tidningen avskedade dem journalist som publicerade falska fakta.,99,99,99,99,inc,1,no,,,0,8,8,8,0,0,0,0,,,,,,,,,,,,,,,,,,,,,,,,,,,,,,,,,,,,,,,,,,,,,,,,,,,,,,,,,,,,,,,,,,,,,,,,,,,,,,,,,,,,,,,,,,,,,,,,,,,,,,,,,,,,,,,,,,,,,,,,,,,,,,,,,,,,,,,,,,,,,,,,,,,,,,,,,,,,,,,,,,,,,,,,,,,,,,,,,,NENA_006,001,2020_Sep_10_1330,test7,3.2.4,100.03436249695994,
199,9,Tidningen avskedade dem journalist som publicerade falska fakta.,99,99,99,99,inc,1,no,,,0,8,8,8,,,,,,,,,,,,,,,,,,,,,,,,,,,,,,,,,,,,,,,,,,,,,,,,,,,,,,,,,,,,,,,,,,,,,,,,,,,,,,,,,,,,,,,,,,,,,,,,,,,,,,,,,,,,,,,,,,,,,,,,,,,,,,,,256.207510261107,None,,,,,,,,,,,,,,,,,,,,,,,,,,,,,,,,,,,,,,,,,,,,,,,,,,,,,NENA_006,001,2020_Sep_10_1330,test7,3.2.4,100.03436249695994,
199,10,Bra jobbat!,99,99,99,99,cor,1,no,,,0,9,9,9,0,0,0,0,0,0,0,0,,,,,,,,,,,,,,,,,,,,,,,,,,,,,,,,,,,,,,,,,,,,,,,,,,,,,,,,,,,,,,,,,,,,,,,,,,,,,,,,,,,,,257.7071726877675,None,257.7071726877675,None,258.207236032883,None,259.7075210057219,259.7075210057219,0.00989120356098283,None,259.7075210057219,259.7075210057219,260.19688880863396,None,260.69771582322574,None,260.69771582322574,None,left,1,1.1571686946190312,260.69771582322574,None,261.8778898603232,None,262.1776325348219,None,262.1776325348219,None,262.1776325348219,None,space,0.9652567273315071,262.1776325348219,None,,,,,,,,,,,,,,,,,,,,,,,,,,,,,,,,,,,,,,,,,,,,,,,,,,,,,,,NENA_006,001,2020_Sep_10_1330,test7,3.2.4,100.03436249695994,
199,10,Bra jobbat!,99,99,99,99,cor,1,no,,,0,9,9,9,0,0,0,0,,,,,,,,,,,,,,,,,,,,,,,,,,,,,,,,,,,,,,,,,,,,,,,,,,,,,,,,,,,,,,,,,,,,,,,,,,,,,,,,,,,,,,,,,,,,,,,,,,,,,,,,,,,,,,,,,,,,,,,,,,,,,,,,,,,,,,,,,,,,,,,,,,,,,,,,,,,,,,,,,,,,,,,,,,,,,,,,,,NENA_006,001,2020_Sep_10_1330,test7,3.2.4,100.03436249695994,
199,10,Bra jobbat!,99,99,99,99,cor,1,no,,,0,9,9,9,,,,,,,,,,,,,,,,,,,,,,,,,,,,,,,,,,,,,,,,,,,,,,,,,,,,,,,,,,,,,,,,,,,,,,,,,,,,,,,,,,,,,,,,,,,,,,,,,,,,,,,,,,,,,,,,,,,,,,,,,,,,,,,,263.1681208246355,None,,,,,,,,,,,,,,,,,,,,,,,,,,,,,,,,,,,,,,,,,,,,,,,,,,,,,NENA_006,001,2020_Sep_10_1330,test7,3.2.4,100.03436249695994,
,,,,,,,,,,,,,,,,,,,,,,,,,,,,,,,,,,,,,,,,,,,,,,,,,,,,,,,,,,,,,,,,,,,,,,,,,,,,,,,,,,,,,,,,,,,,,,,,,,,,,,,,,,,,,,,,,,,,,,,,,,,,,,,,,,,,,,,,,,,,,,,,,264.66842279641605,None,264.66842279641605,None,space,30.689812597884156,264.66842279641605,None,,,,,,,,,,,,,,,,,,,,,,,,,,,,,,,,,,,,,,,,,,,,,NENA_006,001,2020_Sep_10_1330,test7,3.2.4,100.03436249695994,
,,,,,,,,,,,,,,,,,,,,,,,,,,,,,,,,,,,,,,,,,,,,,,,,,,,,,,,,,,,,,,,,,,,,,,,,,,,,,,,,,,,,,,,,,,,,,,,,,,,,,,,,,,,,,,,,,,,,,,,,,,,,,,,,,,,,,,,,,,,,,,,,,,,,,,,,,295.37359345778077,None,295.37359345778077,None,space,87.77510687684207,295.37359345778077,None,,,,,,,,,,,,,,,,,,,,,,,,,,,,,,,,,,,,,NENA_006,001,2020_Sep_10_1330,test7,3.2.4,100.03436249695994,
,,,,,,,,,,,,,,,,,,,,,,,,,,,,,,,,,,,,,,,,,,,,,,,,,,,,,,,,,,,,,,,,,,,,,,,,,,,,,,,,,,,,,,,,,,,,,,,,,,,,,,,,,,,,,,,,,,,,,,,,,,,,,,,,,,,,,,,,,,,,,,,,,,,,,,,,,,,,,,,,,383.1596832551759,None,383.1596832551759,None,space,1.40493405532834,383.1596832551759,None,,,,,,,,,,,,,,,,,,,,,,,,,,,,,NENA_006,001,2020_Sep_10_1330,test7,3.2.4,100.03436249695994,
,,,,,,,,,,,,,,,,,,,,,,,,,,,,,,,,,,,,,,,,,,,,,,,,,,,,,,,,,,,,,,,,,,,,,,,,,,,,,,,,,,,,,,,,,,,,,,,,,,,,,,,,,,,,,,,,,,,,,,,,,,,,,,,,,,,,,,,,,,,,,,,,,,,,,,,,,,,,,,,,,,,,,,,,,384.5799522810821,None,384.5799522810821,None,space,5.440622854083813,384.5799522810821,None,,,,,,,,,,,,,,,,,,,,,NENA_006,001,2020_Sep_10_1330,test7,3.2.4,100.03436249695994,
170,34,Festen var ganska trevlig men slutade för tidigt. ,4,,0,,cor,1,no,171,199,,,,,,,,,,,,,0,0,0,0,,,,,,,,,,,,,,,,,,,,,,,,,,,,,,,,,,,,,,,,,,,,,,,,,,,,,,,,,,,,,,,,,,,,,,,,,,,,,,,,,,,,,,,,,,,,,395.53122785927826,None,396.0320144612897,None,396.0320144612897,None,left,1,0.6922957264341676,396.0320144612897,None,,,,,,,,,,,,,396.7520887049732,None,,,,,,,,,,,,,,,,,,,,,,,,,,,,,,,,,390.1202518024493,None,390.1202518024493,None,390.5409560654316,None,395.0418289450945,395.0418289450945,0.009861375227046665,None,395.0418289450945,395.0418289450945,398.252369893141,None,398.252369893141,None,None,0.008077127729848144,None,,NENA_006,001,2020_Sep_10_1330,test7,3.2.4,100.03436249695994,
150,70,Ingenjören hade information som kommittén inte kunde veta.  ,6,,7,,cor,1,no,151,152,,,,,,,,,,,,,0,1,1,1,,,,,,,,,,,,,,,,,,,,,,,,,,,,,,,,,,,,,,,,,,,,,,,,,,,,,,,,,,,,,,,,,,,,,,,,,,,,,,,,,,,,,,,,,,,,,403.7527141377641,None,404.2534683455642,None,404.2534683455642,None,left,1,0.32676971019373013,404.2534683455642,None,,,,,,,,,,,,,404.5933529002923,None,,,,,,,,,,,,,,,,,,,,,,,,,,,,,,,,,398.26207718738715,None,398.26207718738715,None,398.7624715307811,None,403.26331843092703,403.26331843092703,0.009868431392533239,None,403.26331843092703,403.26331843092703,406.0938069644991,None,406.0938069644991,None,None,0.008614999930614431,None,,NENA_006,001,2020_Sep_10_1330,test7,3.2.4,100.03436249695994,
150,55,Förslagen innebar försämringar och facket inte kunde acceptera dem.  ,6,,7,,inc,1,no,157,158,,,,,,,,,,,,,0,2,2,2,,,,,,,,,,,,,,,,,,,,,,,,,,,,,,,,,,,,,,,,,,,,,,,,,,,,,,,,,,,,,,,,,,,,,,,,,,,,,,,,,,,,,,,,,,,,,412.09419114060074,None,412.59497870481573,None,412.59497870481573,None,left,0,0.7290657220810317,412.59497870481573,None,,,,,,,,,,,,,413.3349843689912,None,,,,,,,,,,,,,,,,,,,,,,,,,,,,,,,,,406.1037727709663,None,406.1037727709663,None,406.6038617748627,None,411.6047505308961,411.6047505308961,0.009869393596090958,None,411.6047505308961,411.6047505308961,414.83538936077923,None,414.83538936077923,None,None,0.007711490098699869,None,,NENA_006,001,2020_Sep_10_1330,test7,3.2.4,100.03436249695994,
150,49,Regeringen presenterar förslag som riksdagen vill inte diskutera.  ,6,,7,,inc,1,no,153,154,,,,,,,,,,,,,0,3,3,3,,,,,,,,,,,,,,,,,,,,,,,,,,,,,,,,,,,,,,,,,,,,,,,,,,,,,,,,,,,,,,,,,,,,,,,,,,,,,,,,,,,,,,,,,,,,,420.3360027018698,None,420.8364640788295,None,420.8364640788295,None,right,1,0.8233906090781602,420.8364640788295,None,,,,,,,,,,,,,421.676572987526,None,,,,,,,,,,,,,,,,,,,,,,,,,,,,,,,,,414.84540552260387,None,414.84540552260387,None,415.3454788104973,None,419.8462416781358,419.8462416781358,0.00987292167792475,None,419.8462416781358,419.8462416781358,423.17688945651855,None,423.17688945651855,None,None,0.007913873735560628,None,,NENA_006,001,2020_Sep_10_1330,test7,3.2.4,100.03436249695994,
140,49,Modeller röker gärna cigaretter för att bli mindre hungrigt.,3,,4,,inc,1,no,135,136,,,,,,,,,,,,,0,4,4,4,,,,,,,,,,,,,,,,,,,,,,,,,,,,,,,,,,,,,,,,,,,,,,,,,,,,,,,,,,,,,,,,,,,,,,,,,,,,,,,,,,,,,,,,,,,,,429.1772502189824,None,429.6780615175694,None,429.6780615175694,None,right,1,1.213610315599908,429.6780615175694,None,,,,,,,,,,,,,430.9080366830767,None,,,,,,,,,,,,,,,,,,,,,,,,,,,,,,,,,423.1868324908173,None,423.1868324908173,None,423.6869317582268,None,428.68788562341706,428.68788562341706,0.009871638739241462,None,428.68788562341706,428.68788562341706,432.40847663495344,None,432.40847663495344,None,None,0.008160518767908798,None,,NENA_006,001,2020_Sep_10_1330,test7,3.2.4,100.03436249695994,
170,64,Flygplanet var lite skadat och kunde inte starta. ,4,,0,,cor,1,no,173,199,,,,,,,,,,,,,0,5,5,5,,,,,,,,,,,,,,,,,,,,,,,,,,,,,,,,,,,,,,,,,,,,,,,,,,,,,,,,,,,,,,,,,,,,,,,,,,,,,,,,,,,,,,,,,,,,,437.9088510286447,None,438.4095510322695,None,438.4095510322695,None,left,1,0.801988940424053,438.4095510322695,None,,,,,,,,,,,,,439.22965667588596,None,,,,,,,,,,,,,,,,,,,,,,,,,,,,,,,,,432.418538341115,None,432.418538341115,None,432.9185853287581,None,437.41944377535674,437.41944377535674,0.009870035066342098,None,437.41944377535674,437.41944377535674,440.7300186892154,None,440.7300186892154,None,None,0.008377656205993844,None,,NENA_006,001,2020_Sep_10_1330,test7,3.2.4,100.03436249695994,
150,22,Vägen har skador som bilister inte kan upptäcka i mörkret. ,6,,7,,cor,1,no,151,152,,,,,,,,,,,,,0,6,6,6,,,,,,,,,,,,,,,,,,,,,,,,,,,,,,,,,,,,,,,,,,,,,,,,,,,,,,,,,,,,,,,,,,,,,,,,,,,,,,,,,,,,,,,,,,,,,447.2305079059515,None,447.7312521709737,None,447.7312521709737,None,left,1,0.6720964924124928,447.7312521709737,None,,,,,,,,,,,,,448.42110004968254,None,,,,,,,,,,,,,,,,,,,,,,,,,,,,,,,,,440.7402766850528,None,440.7402766850528,None,441.2401354013882,None,446.74107499388265,446.74107499388265,0.009870997269899817,None,446.74107499388265,446.74107499388265,449.92164103301013,None,449.92164103301013,None,None,0.007659210332349176,None,,NENA_006,001,2020_Sep_10_1330,test7,3.2.4,100.03436249695994,
140,57,Pensionärer matar ibland fåglar med torr bröd.,3,,4,,inc,1,no,135,136,,,,,,,,,,,,,0,7,7,7,,,,,,,,,,,,,,,,,,,,,,,,,,,,,,,,,,,,,,,,,,,,,,,,,,,,,,,,,,,,,,,,,,,,,,,,,,,,,,,,,,,,,,,,,,,,,454.92189370785763,None,455.42269057338126,None,455.42269057338126,None,right,1,0.2846190681302687,455.42269057338126,None,,,,,,,,,,,,,455.72248648984987,None,,,,,,,,,,,,,,,,,,,,,,,,,,,,,,,,,449.93164340323983,None,449.93164340323983,None,450.43176351840975,None,454.43245919211404,454.43245919211404,0.009869072861874884,None,454.43245919211404,454.43245919211404,457.2229998899885,None,457.2229998899885,None,None,0.0077211121415530215,None,,NENA_006,001,2020_Sep_10_1330,test7,3.2.4,100.03436249695994,
170,40,Päronet är för beskt för barnen.  ,4,,0,,cor,1,no,173,199,,,,,,,,,,,,,0,8,8,8,,,,,,,,,,,,,,,,,,,,,,,,,,,,,,,,,,,,,,,,,,,,,,,,,,,,,,,,,,,,,,,,,,,,,,,,,,,,,,,,,,,,,,,,,,,,,461.7231074323554,None,462.2237294974311,None,462.2237294974311,None,left,1,0.9473982156241618,462.2237294974311,None,,,,,,,,,,,,,463.1839032202097,None,,,,,,,,,,,,,,,,,,,,,,,,,,,,,,,,,457.23301765548695,None,457.23301765548695,None,457.7330620772518,None,461.23372263049987,461.23372263049987,0.009872921678834246,None,461.23372263049987,461.23372263049987,464.68429666554596,None,464.68429666554596,None,None,0.007756713701382978,None,,NENA_006,001,2020_Sep_10_1330,test7,3.2.4,100.03436249695994,
130,70,Professorer ger ofta föreläsningar i stora auditorier.,3,,4,,cor,1,no,137,138,,,,,,,,,,,,,0,9,9,9,,,,,,,,,,,,,,,,,,,,,,,,,,,,,,,,,,,,,,,,,,,,,,,,,,,,,,,,,,,,,,,,,,,,,,,,,,,,,,,,,,,,,,,,,,,,,469.68456249051906,None,470.18527821014595,None,470.18527821014595,None,left,1,1.4656276570876798,470.18527821014595,None,,,,,,,,,,,,,471.6659165749634,None,,,,,,,,,,,,,,,,,,,,,,,,,,,,,,,,,464.6943529192158,None,464.6943529192158,None,465.19440279347145,None,469.1951510676781,469.1951510676781,0.00987420461842703,None,469.1951510676781,469.1951510676781,473.1658269937435,None,473.1658269937435,None,None,0.007965832766785752,None,,NENA_006,001,2020_Sep_10_1330,test7,3.2.4,100.03436249695994,
150,119,Byborna byggde murar och fienden inte kunde riva dem.  ,6,,7,,inc,1,no,157,158,,,,,,,,,,,,,0,10,10,10,,,,,,,,,,,,,,,,,,,,,,,,,,,,,,,,,,,,,,,,,,,,,,,,,,,,,,,,,,,,,,,,,,,,,,,,,,,,,,,,,,,,,,,,,,,,,479.166230734666,None,479.66704267472323,None,479.66704267472323,None,left,0,1.583683709336583,479.66704267472323,None,,,,,,,,,,,,,481.2670411993431,None,,,,,,,,,,,,,,,,,,,,,,,,,,,,,,,,,473.17584924952916,None,473.17584924952916,None,473.67591580199314,None,478.6768613280792,478.6768613280792,0.009870997269899817,None,478.6768613280792,478.6768613280792,482.7675395249472,None,482.7675395249472,None,None,0.008309018965519499,None,,NENA_006,001,2020_Sep_10_1330,test7,3.2.4,100.03436249695994,
140,53,Döva använder ofta teckenspråk för att kommunicerar.,3,,4,,inc,1,no,135,136,,,,,,,,,,,,,0,11,11,11,,,,,,,,,,,,,,,,,,,,,,,,,,,,,,,,,,,,,,,,,,,,,,,,,,,,,,,,,,,,,,,,,,,,,,,,,,,,,,,,,,,,,,,,,,,,,487.76780567065543,None,488.26859644221804,None,488.26859644221804,None,right,1,1.8859813569706603,488.26859644221804,None,,,,,,,,,,,,,490.1687834626591,None,,,,,,,,,,,,,,,,,,,,,,,,,,,,,,,,,482.7774492028302,None,482.7774492028302,None,483.27767259459415,None,487.27838334283297,487.27838334283297,0.009870355800558173,None,487.27838334283297,487.27838334283297,491.6691634371356,None,491.6691634371356,None,None,0.007597629257361405,None,,NENA_006,001,2020_Sep_10_1330,test7,3.2.4,100.03436249695994,
180,32,Trädet som i många år hade stått i trädgården utanför deras fönster var nu fällt och skulle fraktas iväg. ,15,,0,,cor,1,no,181,199,,,,,,,,,,,,,0,12,12,12,,,,,,,,,,,,,,,,,,,,,,,,,,,,,,,,,,,,,,,,,,,,,,,,,,,,,,,,,,,,,,,,,,,,,,,,,,,,,,,,,,,,,,,,,,,,,502.67076608460866,None,503.17120533086836,None,503.17120533086836,None,left,1,1.0153333669040876,503.17120533086836,None,,,,,,,,,,,,,504.20109267919725,None,,,,,,,,,,,,,,,,,,,,,,,,,,,,,,,,,491.6792001259846,None,491.6792001259846,None,492.1793048458858,None,502.181049322272,502.181049322272,0.009870676535683742,None,502.181049322272,502.181049322272,505.7017096766641,None,505.7017096766641,None,None,0.00761045864692278,None,,NENA_006,001,2020_Sep_10_1330,test7,3.2.4,100.03436249695994,
180,54,Slipsen som till för några timmar sedan hade hängt i skyltfönstret i klädaffären hängde nu knuten så fint runt hans hals.,16,,0,,cor,1,no,181,199,,,,,,,,,,,,,0,13,13,13,,,,,,,,,,,,,,,,,,,,,,,,,,,,,,,,,,,,,,,,,,,,,,,,,,,,,,,,,,,,,,,,,,,,,,,,,,,,,,,,,,,,,,,,,,,,,517.6831714638438,None,518.1839349729507,None,518.1839349729507,None,left,1,0.7142885092607685,518.1839349729507,None,,,,,,,,,,,,,518.9140453281616,None,,,,,,,,,,,,,,,,,,,,,,,,,,,,,,,,,505.71171429203787,None,505.71171429203787,None,506.2117946360959,None,517.1937407969172,517.1937407969172,0.009865544779131596,None,517.1937407969172,517.1937407969172,520.4143589105416,None,520.4143589105416,None,None,0.007690642339184706,None,,NENA_006,001,2020_Sep_10_1330,test7,3.2.4,100.03436249695994,
180,3,Utslaget som orsakades av ett okänt virus från den brasilianska regnskogen var extremt smittsam och patienten satt i karantän.,14,,0,,inc,1,no,182,199,,,,,,,,,,,,,0,14,14,14,,,,,,,,,,,,,,,,,,,,,,,,,,,,,,,,,,,,,,,,,,,,,,,,,,,,,,,,,,,,,,,,,,,,,,,,,,,,,,,,,,,,,,,,,,,,,531.4156251072463,None,531.9164001628051,None,531.9164001628051,None,right,1,2.5573808927392747,531.9164001628051,None,,,,,,,,,,,,,534.4867490035576,None,,,,,,,,,,,,,,,,,,,,,,,,,,,,,,,,,520.4243676954666,None,520.4243676954666,None,520.9244130794359,None,530.9262431920042,530.9262431920042,0.009860092287453881,None,530.9262431920042,530.9262431920042,535.9871097339475,None,535.9871097339475,None,None,0.007851330455196148,None,,NENA_006,001,2020_Sep_10_1330,test7,3.2.4,100.03436249695994,
150,6,Systern köpte godis som syskonen inte fick smaka på.  ,6,,7,,cor,1,no,151,152,,,,,,,,,,,,,0,15,15,15,,,,,,,,,,,,,,,,,,,,,,,,,,,,,,,,,,,,,,,,,,,,,,,,,,,,,,,,,,,,,,,,,,,,,,,,,,,,,,,,,,,,,,,,,,,,,541.9875221347083,None,542.488275380304,None,542.488275380304,None,left,1,1.0413779920145316,542.488275380304,None,,,,,,,,,,,,,543.5482611204361,None,,,,,,,,,,,,,,,,,,,,,,,,,,,,,,,,,535.997157327779,None,535.997157327779,None,536.4971513941864,None,541.4981382950573,541.4981382950573,0.009870676535683742,None,541.4981382950573,541.4981382950573,545.0487305799116,None,545.0487305799116,None,None,0.008143519827171986,None,,NENA_006,001,2020_Sep_10_1330,test7,3.2.4,100.03436249695994,
180,14,Flygeln som bandledaren hade bett pianisten att inte använda på konserten var extremt svårstämd och lät väldigt högt. ,14,,0,,cor,1,no,181,199,,,,,,,,,,,,,0,16,16,16,,,,,,,,,,,,,,,,,,,,,,,,,,,,,,,,,,,,,,,,,,,,,,,,,,,,,,,,,,,,,,,,,,,,,,,,,,,,,,,,,,,,,,,,,,,,,555.5499616561592,None,556.0507703888688,None,556.0507703888688,None,left,1,0.9746199373221316,556.0507703888688,None,,,,,,,,,,,,,557.040656018059,None,,,,,,,,,,,,,,,,,,,,,,,,,,,,,,,,,545.0586502005717,None,545.0586502005717,None,545.5587145078925,None,555.0605794201829,555.0605794201829,0.009871318004115892,None,555.0605794201829,555.0605794201829,558.5411164969611,None,558.5411164969611,None,None,0.008026772372431878,None,,NENA_006,001,2020_Sep_10_1330,test7,3.2.4,100.03436249695994,
160,6,Det svenska landslaget spelade en historisk match som de öldrickande gubbarna i restaurangen inte skulle glömma.,14,,15,,cor,1,no,161,162,,,,,,,,,,,,,0,17,17,17,,,,,,,,,,,,,,,,,,,,,,,,,,,,,,,,,,,,,,,,,,,,,,,,,,,,,,,,,,,,,,,,,,,,,,,,,,,,,,,,,,,,,,,,,,,,,568.0322120339042,None,568.532991259016,None,568.532991259016,None,left,1,0.7881697623452055,568.532991259016,None,,,,,,,,,,,,,569.3331202585387,None,,,,,,,,,,,,,,,,,,,,,,,,,,,,,,,,,558.5512198986416,None,558.5512198986416,None,559.0512620752634,None,567.5428163270681,567.5428163270681,0.009870676535683742,None,567.5428163270681,567.5428163270681,570.833406578463,None,570.833406578463,None,None,0.00785582074240665,None,,NENA_006,001,2020_Sep_10_1330,test7,3.2.4,100.03436249695994,
150,112,Hyresgästen påpekade problemen men hyresvärden kunde inte åtgärda dem.  ,6,,7,,cor,1,no,155,156,,,,,,,,,,,,,0,18,18,18,,,,,,,,,,,,,,,,,,,,,,,,,,,,,,,,,,,,,,,,,,,,,,,,,,,,,,,,,,,,,,,,,,,,,,,,,,,,,,,,,,,,,,,,,,,,,576.8337798495822,None,577.3345975628654,None,577.3345975628654,None,left,1,1.0583458232795238,577.3345975628654,None,,,,,,,,,,,,,578.4049638836623,None,,,,,,,,,,,,,,,,,,,,,,,,,,,,,,,,,570.8434220988183,None,570.8434220988183,None,571.3435034050808,None,576.3444053112398,576.3444053112398,0.009869393596090958,None,576.3444053112398,576.3444053112398,579.9050118976567,None,579.9050118976567,None,None,0.008109521942060383,None,,NENA_006,001,2020_Sep_10_1330,test7,3.2.4,100.03436249695994,
140,13,Politiker fattar ofta beslut utan att involverar befolkningen.,3,,4,,inc,1,no,131,132,,,,,,,,,,,,,0,19,19,19,,,,,,,,,,,,,,,,,,,,,,,,,,,,,,,,,,,,,,,,,,,,,,,,,,,,,,,,,,,,,,,,,,,,,,,,,,,,,,,,,,,,,,,,,,,,,585.4053551800753,None,585.9060718619075,None,585.9060718619075,None,right,1,0.574854522728856,585.9060718619075,None,,,,,,,,,,,,,586.4962741846048,None,,,,,,,,,,,,,,,,,,,,,,,,,,,,,,,,,579.9150065702524,None,579.9150065702524,None,580.4150635006727,None,584.9159642842596,584.9159642842596,0.009870997269899817,None,584.9159642842596,584.9159642842596,587.9964152116801,None,587.9964152116801,None,None,0.008218571761062776,None,,NENA_006,001,2020_Sep_10_1330,test7,3.2.4,100.03436249695994,
170,52,Klimatet är väldigt stabilt vid ekvatorn.  ,4,,0,,cor,1,no,173,199,,,,,,,,,,,,,0,20,20,20,,,,,,,,,,,,,,,,,,,,,,,,,,,,,,,,,,,,,,,,,,,,,,,,,,,,,,,,,,,,,,,,,,,,,,,,,,,,,,,,,,,,,,,,,,,,,592.4966266721112,None,592.997383766523,None,592.997383766523,None,left,1,1.6831916701330556,592.997383766523,None,,,,,,,,,,,,,594.6975211372228,None,,,,,,,,,,,,,,,,,,,,,,,,,,,,,,,,,588.0065041802973,None,588.0065041802973,None,588.5065441117749,None,592.0072399458477,592.0072399458477,0.009873883882391965,None,592.0072399458477,592.0072399458477,596.1979739184909,None,596.1979739184909,None,None,0.008614358462182281,None,,NENA_006,001,2020_Sep_10_1330,test7,3.2.4,100.03436249695994,
130,6,Slaktare säljer ofta kött från den omedelbara omgivningen.,3,,4,,cor,1,no,131,132,,,,,,,,,,,,,0,21,21,21,,,,,,,,,,,,,,,,,,,,,,,,,,,,,,,,,,,,,,,,,,,,,,,,,,,,,,,,,,,,,,,,,,,,,,,,,,,,,,,,,,,,,,,,,,,,,601.6985417152446,None,602.1990428633153,None,602.1990428633153,None,left,1,0.7456637461627906,602.1990428633153,None,,,,,,,,,,,,,602.9588449186476,None,,,,,,,,,,,,,,,,,,,,,,,,,,,,,,,,,596.207846070406,None,596.207846070406,None,596.7080274459158,None,601.2088640825496,601.2088640825496,0.009864903308880457,None,601.2088640825496,601.2088640825496,604.4594478037853,None,604.4594478037853,None,None,0.007612062321641133,None,,NENA_006,001,2020_Sep_10_1330,test7,3.2.4,100.03436249695994,
150,56,Avtalen omfattade material men förlagen har inte ägt rättigheterna till dem. ,6,,7,,cor,1,no,155,156,,,,,,,,,,,,,0,22,22,22,,,,,,,,,,,,,,,,,,,,,,,,,,,,,,,,,,,,,,,,,,,,,,,,,,,,,,,,,,,,,,,,,,,,,,,,,,,,,,,,,,,,,,,,,,,,,611.4600353257274,None,611.9607917786707,None,611.9607917786707,None,left,1,0.9355554051671788,611.9607917786707,None,,,,,,,,,,,,,612.9109819904224,None,,,,,,,,,,,,,,,,,,,,,,,,,,,,,,,,,604.4694556265058,None,604.4694556265058,None,604.9695257070525,None,610.9706261480305,610.9706261480305,0.009871318005025387,None,610.9706261480305,610.9706261480305,614.4111817119602,None,614.4111817119602,None,None,0.007983152443557628,None,,NENA_006,001,2020_Sep_10_1330,test7,3.2.4,100.03436249695994,
170,102,Bilden var väldigt ful och behövde tas ned. ,4,,0,,cor,1,no,171,199,,,,,,,,,,,,,0,23,23,23,,,,,,,,,,,,,,,,,,,,,,,,,,,,,,,,,,,,,,,,,,,,,,,,,,,,,,,,,,,,,,,,,,,,,,,,,,,,,,,,,,,,,,,,,,,,,619.9115189004187,None,620.4123061438995,None,620.4123061438995,None,left,1,0.451900850621314,620.4123061438995,None,,,,,,,,,,,,,620.8824000325867,None,,,,,,,,,,,,,,,,,,,,,,,,,,,,,,,,,614.421226098445,None,614.421226098445,None,614.9213157438116,None,619.4221462864853,619.4221462864853,0.0098677899222821,None,619.4221462864853,619.4221462864853,622.382648505809,None,622.382648505809,None,None,0.008151858930432354,None,,NENA_006,001,2020_Sep_10_1330,test7,3.2.4,100.03436249695994,
170,69,Gungan var för instabilt för barnen.  ,4,,0,,inc,1,no,172,199,,,,,,,,,,,,,0,24,24,24,,,,,,,,,,,,,,,,,,,,,,,,,,,,,,,,,,,,,,,,,,,,,,,,,,,,,,,,,,,,,,,,,,,,,,,,,,,,,,,,,,,,,,,,,,,,,626.8827659909539,None,627.3835381599001,None,627.3835381599001,None,right,1,0.35247082837122434,627.3835381599001,None,,,,,,,,,,,,,627.7532981957711,None,,,,,,,,,,,,,,,,,,,,,,,,,,,,,,,,,622.3927066838887,None,622.3927066838887,None,622.8925355718911,None,626.3934055649406,626.3934055649406,0.009872600943708676,None,626.3934055649406,626.3934055649406,629.2538834404969,None,629.2538834404969,None,None,0.008126841618832259,None,,NENA_006,001,2020_Sep_10_1330,test7,3.2.4,100.03436249695994,
160,30,Den torra sommaren orsakade en kraftig aspblomning som de flesta invånarna i de södra stadsdelarna inte hade upplevt förut.,16,,17,,cor,1,no,161,162,,,,,,,,,,,,,0,25,25,25,,,,,,,,,,,,,,,,,,,,,,,,,,,,,,,,,,,,,,,,,,,,,,,,,,,,,,,,,,,,,,,,,,,,,,,,,,,,,,,,,,,,,,,,,,,,,640.2551743337781,None,640.7559503515413,None,640.7559503515413,None,left,1,0.9240224244913406,640.7559503515413,None,,,,,,,,,,,,,641.6961201677705,None,,,,,,,,,,,,,,,,,,,,,,,,,,,,,,,,,629.2639352038805,None,629.2639352038805,None,629.7639327983698,None,639.7658062101309,639.7658062101309,0.009868431392533239,None,639.7658062101309,639.7658062101309,643.196394941243,None,643.196394941243,None,None,0.008110484144708607,None,,NENA_006,001,2020_Sep_10_1330,test7,3.2.4,100.03436249695994,
160,44,Dramaserien från Syrien återuppväckte gamla minnen från arabiska kontakter som den pensionerade socialarbetaren på det lilla kontoret inte hade förutsett.,18,,19,,cor,1,no,161,162,,,,,,,,,,,,,0,26,26,26,,,,,,,,,,,,,,,,,,,,,,,,,,,,,,,,,,,,,,,,,,,,,,,,,,,,,,,,,,,,,,,,,,,,,,,,,,,,,,,,,,,,,,,,,,,,,654.6977713103397,None,655.198571383211,None,655.198571383211,None,left,1,0.8651169190479777,655.198571383211,None,,,,,,,,,,,,,656.0789078083199,None,,,,,,,,,,,,,,,,,,,,,,,,,,,,,,,,,643.2064101408641,None,643.2064101408641,None,643.706468354224,None,654.2083990171404,654.2083990171404,0.009871638739241462,None,654.2083990171404,654.2083990171404,657.578969293175,None,657.578969293175,None,None,0.008145444234287424,None,,NENA_006,001,2020_Sep_10_1330,test7,3.2.4,100.03436249695994,
170,74,Duschen blev nyligen installerad i det nya huset. ,4,,0,,cor,1,no,171,199,,,,,,,,,,,,,0,27,27,27,,,,,,,,,,,,,,,,,,,,,,,,,,,,,,,,,,,,,,,,,,,,,,,,,,,,,,,,,,,,,,,,,,,,,,,,,,,,,,,,,,,,,,,,,,,,,663.0793106511846,None,663.580001674236,None,663.580001674236,None,left,1,0.3073809729230561,663.580001674236,None,,,,,,,,,,,,,663.8999060567876,None,,,,,,,,,,,,,,,,,,,,,,,,,,,,,,,,,657.588872877097,None,657.588872877097,None,658.0890478379115,None,662.5899056430399,662.5899056430399,0.009871638740150956,None,662.5899056430399,662.5899056430399,665.4003549892378,None,665.4003549892378,None,None,0.008194837389055465,None,,NENA_006,001,2020_Sep_10_1330,test7,3.2.4,100.03436249695994,
180,49,Ålen som tidigt rödlistades på grund av det nära förestående utrotningshotet är fortfarande vanligt som julmat.  ,14,,0,,inc,1,no,182,199,,,,,,,,,,,,,0,28,28,28,,,,,,,,,,,,,,,,,,,,,,,,,,,,,,,,,,,,,,,,,,,,,,,,,,,,,,,,,,,,,,,,,,,,,,,,,,,,,,,,,,,,,,,,,,,,,674.9014250566343,None,675.4022087720323,None,675.4022087720323,None,right,1,1.620962711055654,675.4022087720323,None,,,,,,,,,,,,,677.0326857591526,None,,,,,,,,,,,,,,,,,,,,,,,,,,,,,,,,,665.4103474166905,None,665.4103474166905,None,665.9104688147991,None,674.4120287083279,674.4120287083279,0.009869072861874884,None,674.4120287083279,674.4120287083279,678.5327440366592,None,678.5327440366592,None,None,0.008121068392938469,None,,NENA_006,001,2020_Sep_10_1330,test7,3.2.4,100.03436249695994,
160,49,Båtens praktfulla segel skymde den fantastiska stranden som den fullständigt utmattade seglaren i fören hade inte sett på flera år.,15,,16,,inc,1,no,163,164,,,,,,,,,,,,,0,29,29,29,,,,,,,,,,,,,,,,,,,,,,,,,,,,,,,,,,,,,,,,,,,,,,,,,,,,,,,,,,,,,,,,,,,,,,,,,,,,,,,,,,,,,,,,,,,,,690.0341191228163,None,690.5349422885902,None,690.5349422885902,None,left,0,0.559955751432426,690.5349422885902,None,,,,,,,,,,,,,691.1052090212434,None,,,,,,,,,,,,,,,,,,,,,,,,,,,,,,,,,678.5427784803651,None,678.5427784803651,None,679.04280333731,None,689.5447458674134,689.5447458674134,0.00986650698359881,None,689.5447458674134,689.5447458674134,692.6052929575309,None,692.6052929575309,None,None,0.008127483088173904,None,,NENA_006,001,2020_Sep_10_1330,test7,3.2.4,100.03436249695994,
150,13,Galleristen föredrog färger som målaren kunde inte använda.  ,6,,7,,inc,1,no,153,154,,,,,,,,,,,,,0,30,30,30,,,,,,,,,,,,,,,,,,,,,,,,,,,,,,,,,,,,,,,,,,,,,,,,,,,,,,,,,,,,,,,,,,,,,,,,,,,,,,,,,,,,,,,,,,,,,698.1056003176564,None,698.6063291874088,None,698.6063291874088,None,right,1,0.2963630922813536,698.6063291874088,None,,,,,,,,,,,,,698.916527173772,None,,,,,,,,,,,,,,,,,,,,,,,,,,,,,,,,,692.6153267597674,None,692.6153267597674,None,693.1153256371963,None,697.6162068559624,697.6162068559624,0.009872280209492601,None,697.6162068559624,697.6162068559624,700.416596356261,None,700.416596356261,None,None,0.008128445292641118,None,,NENA_006,001,2020_Sep_10_1330,test7,3.2.4,100.03436249695994,
180,4,Rummet som hade lånats ut till ett yngre par på genomresa var fruktansvärt stökigt när de åkte. ,14,,0,,cor,1,no,181,199,,,,,,,,,,,,,0,31,31,31,,,,,,,,,,,,,,,,,,,,,,,,,,,,,,,,,,,,,,,,,,,,,,,,,,,,,,,,,,,,,,,,,,,,,,,,,,,,,,,,,,,,,,,,,,,,,710.4178147634857,None,710.918418225946,None,710.918418225946,None,left,1,0.4719820542486559,710.918418225946,None,,,,,,,,,,,,,711.4085750363793,None,,,,,,,,,,,,,,,,,,,,,,,,,,,,,,,,,700.4266336865803,None,700.4266336865803,None,700.9267339161943,None,709.9284033406457,709.9284033406457,0.009871318005025387,None,709.9284033406457,709.9284033406457,712.9089049762325,None,712.9089049762325,None,None,0.007987001261426485,None,,NENA_006,001,2020_Sep_10_1330,test7,3.2.4,100.03436249695994,
170,97,Bänken är ganska nymålat och ser bra ut. ,4,,0,,inc,1,no,172,199,,,,,,,,,,,,,0,32,32,32,,,,,,,,,,,,,,,,,,,,,,,,,,,,,,,,,,,,,,,,,,,,,,,,,,,,,,,,,,,,,,,,,,,,,,,,,,,,,,,,,,,,,,,,,,,,,718.4092168266443,None,718.91000984335,None,718.91000984335,None,right,1,0.2803513713497523,718.91000984335,None,,,,,,,,,,,,,719.1997872887041,None,,,,,,,,,,,,,,,,,,,,,,,,,,,,,,,,,712.9189025354408,None,712.9189025354408,None,713.419021046936,None,717.9198512688754,717.9198512688754,0.009867469188066025,None,717.9198512688754,717.9198512688754,720.7003186499888,None,720.7003186499888,None,None,0.0081059938584076,None,,NENA_006,001,2020_Sep_10_1330,test7,3.2.4,100.03436249695994,
130,34,Matematiker löser gärna problem som intresserar allmänheten.,3,,4,,cor,1,no,133,134,,,,,,,,,,,,,0,33,33,33,,,,,,,,,,,,,,,,,,,,,,,,,,,,,,,,,,,,,,,,,,,,,,,,,,,,,,,,,,,,,,,,,,,,,,,,,,,,,,,,,,,,,,,,,,,,,725.700842987183,None,726.201294742099,None,726.201294742099,None,left,1,0.5969255648378748,726.201294742099,None,,,,,,,,,,,,,726.811493915181,None,,,,,,,,,,,,,,,,,,,,,,,,,,,,,,,,,720.7103037005418,None,720.7103037005418,None,721.2102490152647,None,725.2111457896672,725.2111457896672,0.009865544778222102,None,725.2111457896672,725.2111457896672,728.3116557900167,None,728.3116557900167,None,None,0.00815666995185893,None,,NENA_006,001,2020_Sep_10_1330,test7,3.2.4,100.03436249695994,
140,75,Turister besöker ofta städer som de läsa om på bloggar.,3,,4,,inc,1,no,137,138,,,,,,,,,,,,,0,34,34,34,,,,,,,,,,,,,,,,,,,,,,,,,,,,,,,,,,,,,,,,,,,,,,,,,,,,,,,,,,,,,,,,,,,,,,,,,,,,,,,,,,,,,,,,,,,,,734.8121911925591,None,735.312921024517,None,735.312921024517,None,left,0,2.092991592578983,735.312921024517,None,,,,,,,,,,,,,737.4232133710475,None,,,,,,,,,,,,,,,,,,,,,,,,,,,,,,,,,728.3217056289914,None,728.3217056289914,None,728.8217625594125,None,734.3227553938768,734.3227553938768,0.00987292167792475,None,734.3227553938768,734.3227553938768,738.9235596683731,None,738.9235596683731,None,None,0.0076495882885865285,None,,NENA_006,001,2020_Sep_10_1330,test7,3.2.4,100.03436249695994,
170,116,Riset blir något klibbigt vid överkokning.  ,4,,0,,cor,1,no,173,199,,,,,,,,,,,,,0,35,35,35,,,,,,,,,,,,,,,,,,,,,,,,,,,,,,,,,,,,,,,,,,,,,,,,,,,,,,,,,,,,,,,,,,,,,,,,,,,,,,,,,,,,,,,,,,,,,743.4237194905063,None,743.9245060925177,None,743.9245060925177,None,left,1,0.3933289093320127,743.9245060925177,None,,,,,,,,,,,,,744.3342668853229,None,,,,,,,,,,,,,,,,,,,,,,,,,,,,,,,,,738.9336431844986,None,738.9336431844986,None,739.4336824745078,None,742.9342699002291,742.9342699002291,0.009870355800558173,None,742.9342699002291,742.9342699002291,745.8348508471091,None,745.8348508471091,None,None,0.007671718987694476,None,,NENA_006,001,2020_Sep_10_1330,test7,3.2.4,100.03436249695994,
150,110,Föraren såg älgen som passageraren inte kunde se.  ,6,,7,,cor,1,no,151,152,,,,,,,,,,,,,0,36,36,36,,,,,,,,,,,,,,,,,,,,,,,,,,,,,,,,,,,,,,,,,,,,,,,,,,,,,,,,,,,,,,,,,,,,,,,,,,,,,,,,,,,,,,,,,,,,,751.3351755269114,None,751.8359448092451,None,751.8359448092451,None,left,1,0.15375415231210354,751.8359448092451,None,,,,,,,,,,,,,752.0056750809299,None,,,,,,,,,,,,,,,,,,,,,,,,,,,,,,,,,745.8447313381284,None,745.8447313381284,None,746.3449245808242,None,750.8457637833362,750.8457637833362,0.009871638739241462,None,750.8457637833362,750.8457637833362,753.5061920091504,None,753.5061920091504,None,None,0.007737469614767178,None,,NENA_006,001,2020_Sep_10_1330,test7,3.2.4,100.03436249695994,
150,100,Kirurgen utförde operationen men experterna hade inte trott att den var möjlig.,6,,7,,cor,1,no,155,156,,,,,,,,,,,,,0,37,37,37,,,,,,,,,,,,,,,,,,,,,,,,,,,,,,,,,,,,,,,,,,,,,,,,,,,,,,,,,,,,,,,,,,,,,,,,,,,,,,,,,,,,,,,,,,,,,761.0068656483772,None,761.5076721359428,None,761.5076721359428,None,left,1,0.43383771013395744,761.5076721359428,None,,,,,,,,,,,,,761.9574785885488,None,,,,,,,,,,,,,,,,,,,,,,,,,,,,,,,,,753.5162505079643,None,753.5162505079643,None,754.0163122494059,None,760.5174920722384,760.5174920722384,0.009868431391623744,None,760.5174920722384,760.5174920722384,763.4579839703184,None,763.4579839703184,None,None,0.0081377466003687,None,,NENA_006,001,2020_Sep_10_1330,test7,3.2.4,100.03436249695994,
150,23,Politikern säger saker men partiet inte kan hålla med om dem. ,6,,7,,inc,1,no,157,158,,,,,,,,,,,,,0,38,38,38,,,,,,,,,,,,,,,,,,,,,,,,,,,,,,,,,,,,,,,,,,,,,,,,,,,,,,,,,,,,,,,,,,,,,,,,,,,,,,,,,,,,,,,,,,,,,770.4486062631167,None,770.9493165302529,None,770.9493165302529,None,left,0,0.5919538552479935,770.9493165302529,None,,,,,,,,,,,,,771.5592844535695,None,,,,,,,,,,,,,,,,,,,,,,,,,,,,,,,,,763.4680293190067,None,763.4680293190067,None,763.968042629499,None,769.9592006135017,769.9592006135017,0.009869714330307033,None,769.9592006135017,769.9592006135017,773.0597115760557,None,773.0597115760557,None,None,0.008664393085382471,None,,NENA_006,001,2020_Sep_10_1330,test7,3.2.4,100.03436249695994,
140,41,Brevbärare levererar ofta brev och små paketen.,3,,4,,inc,1,no,133,134,,,,,,,,,,,,,0,39,39,39,,,,,,,,,,,,,,,,,,,,,,,,,,,,,,,,,,,,,,,,,,,,,,,,,,,,,,,,,,,,,,,,,,,,,,,,,,,,,,,,,,,,,,,,,,,,,778.0599533459217,None,778.5607409101367,None,778.5607409101367,None,right,1,0.5246701162759564,778.5607409101367,None,,,,,,,,,,,,,779.1005461792311,None,,,,,,,,,,,,,,,,,,,,,,,,,,,,,,,,,773.0697553210703,None,773.0697553210703,None,773.5697968562226,None,777.5705194716475,777.5705194716475,0.009869072861874884,None,777.5705194716475,777.5705194716475,780.6010990297456,None,780.6010990297456,None,None,0.00761655260794214,None,,NENA_006,001,2020_Sep_10_1330,test7,3.2.4,100.03436249695994,
160,21,Praktikanten i blomsteraffären vattnade alla gamla orkidéer som den gamla och snart pensionerade ägaren ville inte bry sig om.,15,,16,,inc,1,no,163,164,,,,,,,,,,,,,0,40,40,40,,,,,,,,,,,,,,,,,,,,,,,,,,,,,,,,,,,,,,,,,,,,,,,,,,,,,,,,,,,,,,,,,,,,,,,,,,,,,,,,,,,,,,,,,,,,,791.6024107707872,None,792.1031220001278,None,792.1031220001278,None,right,1,1.4218489653585493,792.1031220001278,None,,,,,,,,,,,,,793.5431037054168,None,,,,,,,,,,,,,,,,,,,,,,,,,,,,,,,,,780.6111107012839,None,780.6111107012839,None,781.1111612170089,None,791.1129502755275,791.1129502755275,0.009870035066342098,None,791.1129502755275,791.1129502755275,795.0437004965944,None,795.0437004965944,None,None,0.007645418737411092,None,,NENA_006,001,2020_Sep_10_1330,test7,3.2.4,100.03436249695994,
150,41,Regeringen tog beslut som folket ville inte acceptera.  ,6,,7,,inc,1,no,153,154,,,,,,,,,,,,,0,41,41,41,,,,,,,,,,,,,,,,,,,,,,,,,,,,,,,,,,,,,,,,,,,,,,,,,,,,,,,,,,,,,,,,,,,,,,,,,,,,,,,,,,,,,,,,,,,,,800.5439854052856,None,801.0447768183176,None,801.0447768183176,None,right,1,1.8239640828387564,801.0447768183176,None,,,,,,,,,,,,,802.884955326459,None,,,,,,,,,,,,,,,,,,,,,,,,,,,,,,,,,795.0537102437238,None,795.0537102437238,None,795.5537937951294,None,800.0545807178751,800.0545807178751,0.009869393596090958,None,800.0545807178751,800.0545807178751,804.3853583938372,None,804.3853583938372,None,None,0.00797417187004612,None,,NENA_006,001,2020_Sep_10_1330,test7,3.2.4,100.03436249695994,
150,50,Riksdagen fattar beslut som kommunerna inte kan genomföra.  ,6,,7,,cor,1,no,151,152,,,,,,,,,,,,,0,42,42,42,,,,,,,,,,,,,,,,,,,,,,,,,,,,,,,,,,,,,,,,,,,,,,,,,,,,,,,,,,,,,,,,,,,,,,,,,,,,,,,,,,,,,,,,,,,,,809.8856474720815,None,810.3864661475682,None,810.3864661475682,None,left,1,0.8662054928390717,810.3864661475682,None,,,,,,,,,,,,,811.2663407146165,None,,,,,,,,,,,,,,,,,,,,,,,,,,,,,,,,,804.3953700653756,None,804.3953700653756,None,804.8954228262446,None,809.3962992339893,809.3962992339893,0.009868431391623744,None,809.3962992339893,809.3962992339893,812.7668502659373,None,812.7668502659373,None,None,0.008155066277140577,None,,NENA_006,001,2020_Sep_10_1330,test7,3.2.4,100.03436249695994,
170,11,Konstverket är förmodligen falsk och undersöks därför grundligt. ,4,,0,,inc,1,yes,174,199,,,,,,,,,,,,,0,43,43,43,,,,,,,,,,,,,,,,,,,,,,,,,,,,,,,,,,,,,,,,,,,,,,,,,,,,,,,,,,,,,,,,,,,,,,,,,,,,,,,,,,,,,,,,,,,,,818.2671848885175,None,818.767753070154,None,818.767753070154,None,right,1,0.5726776958799746,818.767753070154,None,,,,,,,,,,,,,819.3578813031199,None,,,,,,,,,,,,,,,,,,,,,,,,,,,,,,,,,812.7768962560958,None,812.7768962560958,None,813.2769140568753,None,817.7777962378459,817.7777962378459,0.00987324241305032,None,817.7777962378459,817.7777962378459,820.8585360831421,None,820.8585360831421,None,space,0.008301000596475205,None,86.8088680596602,NENA_006,001,2020_Sep_10_1330,test7,3.2.4,100.03436249695994,
150,95,Mostern köpte sparkcyklar men barnen inte får använda dem utan hjälm. ,6,,7,,inc,1,no,157,158,,,,,,,,,,,,,0,44,44,44,,,,,,,,,,,,,,,,,,,,,,,,,,,,,,,,,,,,,,,,,,,,,,,,,,,,,,,,,,,,,,,,,,,,,,,,,,,,,,,,,,,,,,,,,,,,,914.6745074556402,None,915.1752963027948,None,915.1752963027948,None,left,0,0.7632996679431017,915.1752963027948,None,,,,,,,,,,,,,915.9553877186172,None,,,,,,,,,,,,,,,,,,,,,,,,,,,,,,,,,907.6839271149493,None,907.6839271149493,None,908.1840257408894,None,914.1851127110076,914.1851127110076,0.00986650698359881,None,914.1851127110076,914.1851127110076,917.4556118159973,None,917.4556118159973,None,None,0.007964229092976893,None,,NENA_006,001,2020_Sep_10_1330,test7,3.2.4,100.03436249695994,
140,1,Hönor lägger ofta ägg tidigt på morgon.,3,,4,,inc,1,no,131,132,,,,,,,,,,,,,0,45,45,45,,,,,,,,,,,,,,,,,,,,,,,,,,,,,,,,,,,,,,,,,,,,,,,,,,,,,,,,,,,,,,,,,,,,,,,,,,,,,,,,,,,,,,,,,,,,,922.4558747543579,None,922.9566462818348,None,922.9566462818348,None,right,1,0.31792769419644173,922.9566462818348,None,,,,,,,,,,,,,923.28646201009,None,,,,,,,,,,,,,,,,,,,,,,,,,,,,,,,,,917.4656334303136,None,917.4656334303136,None,917.9657926751242,None,921.9665124039366,921.9665124039366,0.009866827717814886,None,921.9665124039366,921.9665124039366,924.7869212060533,None,924.7869212060533,None,None,0.007991170813511417,None,,NENA_006,001,2020_Sep_10_1330,test7,3.2.4,100.03436249695994,
150,9,Företaget tillverkar energibilar som kunderna kan inte köpa.  ,6,,7,,inc,1,no,153,154,,,,,,,,,,,,,0,46,46,46,,,,,,,,,,,,,,,,,,,,,,,,,,,,,,,,,,,,,,,,,,,,,,,,,,,,,,,,,,,,,,,,,,,,,,,,,,,,,,,,,,,,,,,,,,,,,930.2873151645645,None,930.7880568637083,None,930.7880568637083,None,right,1,0.550301314274293,930.7880568637083,None,,,,,,,,,,,,,931.3482669578088,None,,,,,,,,,,,,,,,,,,,,,,,,,,,,,,,,,924.7970220418556,None,924.7970220418556,None,925.296992053155,None,929.7978678194304,929.7978678194304,0.009867469188066025,None,929.7978678194304,929.7978678194304,932.8483775150818,None,932.8483775150818,None,None,0.008139991744428698,None,,NENA_006,001,2020_Sep_10_1330,test7,3.2.4,100.03436249695994,
180,48,Golvet som de små barnen skulle springa runt på i idrottshallen var fruktansvärt slitet efter alla år. ,14,,0,,cor,1,no,181,199,,,,,,,,,,,,,0,47,47,47,,,,,,,,,,,,,,,,,,,,,,,,,,,,,,,,,,,,,,,,,,,,,,,,,,,,,,,,,,,,,,,,,,,,,,,,,,,,,,,,,,,,,,,,,,,,,942.8395845073564,None,943.3403579592423,None,943.3403579592423,None,left,1,2.0936824552627513,943.3403579592423,None,,,,,,,,,,,,,945.4506512679773,None,,,,,,,,,,,,,,,,,,,,,,,,,,,,,,,,,932.8584353724264,None,932.8584353724264,None,933.3585186030978,None,942.350160255126,942.350160255126,0.00987292167792475,None,942.350160255126,942.350160255126,946.9508808178481,None,946.9508808178481,None,None,0.008116578105727967,None,,NENA_006,001,2020_Sep_10_1330,test7,3.2.4,100.03436249695994,
140,29,Mekaniker reparerar ofta bilar och motorcykel.,3,,4,,inc,1,no,133,134,,,,,,,,,,,,,0,48,48,48,,,,,,,,,,,,,,,,,,,,,,,,,,,,,,,,,,,,,,,,,,,,,,,,,,,,,,,,,,,,,,,,,,,,,,,,,,,,,,,,,,,,,,,,,,,,,951.4511163333864,None,951.9518766351466,None,951.9518766351466,None,right,1,5.402044235097492,951.9518766351466,None,,,,,,,,,,,,,957.3632702886389,None,,,,,,,,,,,,,,,,,,,,,,,,,,,,,,,,,946.9608254558207,None,946.9608254558207,None,947.4610308864376,None,950.9617170984666,950.9617170984666,0.009870355799648678,None,950.9617170984666,950.9617170984666,958.8630883358074,None,958.8630883358074,None,None,0.007857424417125003,None,,NENA_006,001,2020_Sep_10_1330,test7,3.2.4,100.03436249695994,
150,81,Politiken kräver skatter som ekonomin kan inte klara av.  ,6,,7,,inc,1,no,153,154,,,,,,,,,,,,,0,49,49,49,,,,,,,,,,,,,,,,,,,,,,,,,,,,,,,,,,,,,,,,,,,,,,,,,,,,,,,,,,,,,,,,,,,,,,,,,,,,,,,,,,,,,,,,,,,,,964.8634911145245,None,965.3642841312312,None,965.3642841312312,None,left,0,3.845572946151151,965.3642841312312,None,,,,,,,,,,,,,969.2249444407207,None,,,,,,,,,,,,,,,,,,,,,,,,,,,,,,,,,958.873116044083,None,958.873116044083,None,959.37310337506,None,964.3741454423116,964.3741454423116,0.009872600943708676,None,964.3741454423116,964.3741454423116,970.7252140824377,None,970.7252140824377,None,None,0.0075524056555877905,None,,NENA_006,001,2020_Sep_10_1330,test7,3.2.4,100.03436249695994,
130,8,Bönder mjölkar ofta kor innan de lämnar ladugården.,3,,4,,cor,1,no,131,132,,,,,,,,,,,,,0,50,50,50,,,,,,,,,,,,,,,,,,,,,,,,,,,,,,,,,,,,,,,,,,,,,,,,,,,,,,,,,,,,,,,,,,,,,,,,,,,,,,,,,,,,,,,,,,,,,976.2255512708962,None,976.7263253642504,None,976.7263253642504,None,left,1,1.3231239181213823,976.7263253642504,None,,,,,,,,,,,,,978.0664738836913,None,,,,,,,,,,,,,,,,,,,,,,,,,,,,,,,,,970.7352950326849,None,970.7352950326849,None,971.2353493972278,None,975.7361584506716,975.7361584506716,0.009873883882391965,None,975.7361584506716,975.7361584506716,979.566802540605,None,979.566802540605,None,None,0.007803861710272031,None,,NENA_006,001,2020_Sep_10_1330,test7,3.2.4,100.03436249695994,
160,34,Den nya medicinen mildrar de flesta typer av huvudvärk som många andra liknande substanser på marknaden inte kan klara av.,17,,18,,cor,1,no,161,162,,,,,,,,,,,,,0,51,51,51,,,,,,,,,,,,,,,,,,,,,,,,,,,,,,,,,,,,,,,,,,,,,,,,,,,,,,,,,,,,,,,,,,,,,,,,,,,,,,,,,,,,,,,,,,,,,991.0682363212236,None,991.5689639080383,None,991.5689639080383,None,left,1,0.536325617631519,991.5689639080383,None,,,,,,,,,,,,,992.1188373621362,None,,,,,,,,,,,,,,,,,,,,,,,,,,,,,,,,,979.5768559076623,None,979.5768559076623,None,980.0768868585665,None,990.5788168800145,990.5788168800145,0.009864903309789952,None,990.5788168800145,990.5788168800145,993.6193687234219,None,993.6193687234219,None,None,0.00784170841325249,None,,NENA_006,001,2020_Sep_10_1330,test7,3.2.4,100.03436249695994,
180,27,Folket som såg den nya konservativa ministern på gatan den dagen blev glatt överraskad över färgvalet.  ,14,,0,,inc,1,no,182,199,,,,,,,,,,,,,0,52,52,52,,,,,,,,,,,,,,,,,,,,,,,,,,,,,,,,,,,,,,,,,,,,,,,,,,,,,,,,,,,,,,,,,,,,,,,,,,,,,,,,,,,,,,,,,,,,,1003.120398378237,None,1003.6211590007315,None,1003.6211590007315,None,right,1,0.580021559791021,1003.6211590007315,None,,,,,,,,,,,,,1004.2110213445785,None,,,,,,,,,,,,,,,,,,,,,,,,,,,,,,,,,993.6294461455864,None,993.6294461455864,None,994.129523923767,None,1002.6310074824214,1002.6310074824214,0.009871959473457537,None,1002.6310074824214,1002.6310074824214,1005.7115347447162,None,1005.7115347447162,None,None,0.007551443450211082,None,,NENA_006,001,2020_Sep_10_1330,test7,3.2.4,100.03436249695994,
150,108,Fällan fångade djuret men jägaren ville inte ta hem det. ,6,,7,,cor,1,no,155,156,,,,,,,,,,,,,0,53,53,53,,,,,,,,,,,,,,,,,,,,,,,,,,,,,,,,,,,,,,,,,,,,,,,,,,,,,,,,,,,,,,,,,,,,,,,,,,,,,,,,,,,,,,,,,,,,,1012.2120480165604,None,1012.7127194747909,None,1012.7127194747909,None,left,1,1.2001625483790122,1012.7127194747909,None,,,,,,,,,,,,,1013.9233953880266,None,,,,,,,,,,,,,,,,,,,,,,,,,,,,,,,,,1005.7215582834406,None,1005.7215582834406,None,1006.2216120065141,None,1011.722635952251,1011.722635952251,0.00987260094461817,None,1011.722635952251,1011.722635952251,1015.4232294719333,None,1015.4232294719333,None,None,0.007874102624555235,None,,NENA_006,001,2020_Sep_10_1330,test7,3.2.4,100.03436249695994,
170,114,Sjön är ganska förorenad till följd av ansvarslös båttrafik. ,4,,0,,cor,1,no,171,199,,,,,,,,,,,,,0,54,54,54,,,,,,,,,,,,,,,,,,,,,,,,,,,,,,,,,,,,,,,,,,,,,,,,,,,,,,,,,,,,,,,,,,,,,,,,,,,,,,,,,,,,,,,,,,,,,1021.4236582301664,None,1021.9244753019802,None,1021.9244753019802,None,left,1,0.4361845264083968,1021.9244753019802,None,,,,,,,,,,,,,1022.3742679629913,None,,,,,,,,,,,,,,,,,,,,,,,,,,,,,,,,,1015.433273537682,None,1015.433273537682,None,1015.9333522780671,None,1020.9342917101931,1020.9342917101931,0.009866186249382736,None,1020.9342917101931,1020.9342917101931,1023.8747839290073,None,1023.8747839290073,None,None,0.00811946471912961,None,,NENA_006,001,2020_Sep_10_1330,test7,3.2.4,100.03436249695994,
170,20,Vädret är väldigt varmt för april månad.  ,4,,0,,cor,1,no,173,199,,,,,,,,,,,,,0,55,55,55,,,,,,,,,,,,,,,,,,,,,,,,,,,,,,,,,,,,,,,,,,,,,,,,,,,,,,,,,,,,,,,,,,,,,,,,,,,,,,,,,,,,,,,,,,,,,1028.8749920217233,None,1029.3757706053648,None,1029.3757706053648,None,left,1,0.6807832727836285,1029.3757706053648,None,,,,,,,,,,,,,1030.0660149122423,None,,,,,,,,,,,,,,,,,,,,,,,,,,,,,,,,,1023.8847952798105,None,1023.8847952798105,None,1024.3847598386192,None,1028.3856267846886,1028.3856267846886,0.009871318005025387,None,1028.3856267846886,1028.3856267846886,1031.5661251487809,None,1031.5661251487809,None,None,0.008154745542924502,None,,NENA_006,001,2020_Sep_10_1330,test7,3.2.4,100.03436249695994,
160,19,Den trötta bagaren köpte fem kilo gammalt mjöl som den elaka mjölnaren söder om staden kunde inte sälja till någon annan.,16,,17,,inc,1,no,163,164,,,,,,,,,,,,,0,56,56,56,,,,,,,,,,,,,,,,,,,,,,,,,,,,,,,,,,,,,,,,,,,,,,,,,,,,,,,,,,,,,,,,,,,,,,,,,,,,,,,,,,,,,,,,,,,,,1043.5676652529746,None,1044.0684111216706,None,1044.0684111216706,None,right,1,0.6199578490377462,1044.0684111216706,None,,,,,,,,,,,,,1044.69829635315,None,,,,,,,,,,,,,,,,,,,,,,,,,,,,,,,,,1031.5761544607312,None,1031.5761544607312,None,1032.0762716892878,None,1043.0782618485036,1043.0782618485036,0.00986811065740767,None,1043.0782618485036,1043.0782618485036,1046.1987542661736,None,1046.1987542661736,None,None,0.00823845731702022,None,,NENA_006,001,2020_Sep_10_1330,test7,3.2.4,100.03436249695994,
160,40,Den trevliga städerskan avlägsnade de nytvättade sängkläderna som gästerna i ett av hotellets finaste rum inte hade efterfrågat.,16,,17,,cor,1,no,161,162,,,,,,,,,,,,,0,57,57,57,,,,,,,,,,,,,,,,,,,,,,,,,,,,,,,,,,,,,,,,,,,,,,,,,,,,,,,,,,,,,,,,,,,,,,,,,,,,,,,,,,,,,,,,,,,,,1056.6899983033136,None,1057.190766944177,None,1057.190766944177,None,left,1,1.4013431089015285,1057.190766944177,None,,,,,,,,,,,,,1058.610948088758,None,,,,,,,,,,,,,,,,,,,,,,,,,,,,,,,,,1046.2088204626216,None,1046.2088204626216,None,1046.7088716198168,None,1056.2006298589313,1056.2006298589313,0.009867148452940455,None,1056.2006298589313,1056.2006298589313,1060.1112433892558,None,1060.1112433892558,None,None,0.008201893554542039,None,,NENA_006,001,2020_Sep_10_1330,test7,3.2.4,100.03436249695994,
140,79,Översättare använder ofta lexikon och olika ordbok.,3,,4,,inc,1,no,137,138,,,,,,,,,,,,,0,58,58,58,,,,,,,,,,,,,,,,,,,,,,,,,,,,,,,,,,,,,,,,,,,,,,,,,,,,,,,,,,,,,,,,,,,,,,,,,,,,,,,,,,,,,,,,,,,,,1065.1115361559496,None,1065.6122406498607,None,1065.6122406498607,None,right,1,0.2598015742305506,1065.6122406498607,None,,,,,,,,,,,,,1065.8823342819605,None,,,,,,,,,,,,,,,,,,,,,,,,,,,,,,,,,1060.1212489668333,None,1060.1212489668333,None,1060.6214069287053,None,1064.6221366002956,1064.6221366002956,0.00987388388330146,None,1064.6221366002956,1064.6221366002956,1067.3825817929783,None,1067.3825817929783,None,None,0.00826411609796196,None,,NENA_006,001,2020_Sep_10_1330,test7,3.2.4,100.03436249695994,
180,36,Biobesöket som de alla hade sett fram emot så mycket den här veckan blev ganska tråkigt av någon anledning. ,16,,0,,cor,1,no,181,199,,,,,,,,,,,,,0,59,59,59,,,,,,,,,,,,,,,,,,,,,,,,,,,,,,,,,,,,,,,,,,,,,,,,,,,,,,,,,,,,,,,,,,,,,,,,,,,,,,,,,,,,,,,,,,,,,1078.3839243245566,None,1078.8846506284317,None,1078.8846506284317,None,left,1,4.2428760799539305,1078.8846506284317,None,,,,,,,,,,,,,1083.1451433860802,None,,,,,,,,,,,,,,,,,,,,,,,,,,,,,,,,,1067.39261591595,None,1067.39261591595,None,1067.8925788710849,None,1077.8945270140466,1077.8945270140466,0.00986875212583982,None,1077.8945270140466,1077.8945270140466,1084.6457202917018,None,1084.6457202917018,None,None,0.0077451672486859025,None,,NENA_006,001,2020_Sep_10_1330,test7,3.2.4,100.03436249695994,
150,27,Tjejen har vänner men föräldrarna inte borde veta om dem. ,6,,7,,inc,1,no,157,158,,,,,,,,,,,,,0,60,60,60,,,,,,,,,,,,,,,,,,,,,,,,,,,,,,,,,,,,,,,,,,,,,,,,,,,,,,,,,,,,,,,,,,,,,,,,,,,,,,,,,,,,,,,,,,,,,1091.1461841703922,None,1091.6469903372245,None,1091.6469903372245,None,right,1,0.27237790509479964,1091.6469903372245,None,,,,,,,,,,,,,1091.9369884480966,None,,,,,,,,,,,,,,,,,,,,,,,,,,,,,,,,,1084.6557342083834,None,1084.6557342083834,None,1085.1558315513848,None,1090.6568189333584,1090.6568189333584,0.009870997270809312,None,1090.6568189333584,1090.6568189333584,1093.4372715606733,None,1093.4372715606733,None,None,0.00796166321470082,None,,NENA_006,001,2020_Sep_10_1330,test7,3.2.4,100.03436249695994,
150,40,Nätet sprider information och tidningar kan inte kontrollera detta.  ,6,,7,,cor,1,no,155,156,,,,,,,,,,,,,0,61,61,61,,,,,,,,,,,,,,,,,,,,,,,,,,,,,,,,,,,,,,,,,,,,,,,,,,,,,,,,,,,,,,,,,,,,,,,,,,,,,,,,,,,,,,,,,,,,,1099.4376730564518,None,1099.9384766574049,None,1099.9384766574049,None,left,1,0.5407851138015758,1099.9384766574049,None,,,,,,,,,,,,,1100.4887151076664,None,,,,,,,,,,,,,,,,,,,,,,,,,,,,,,,,,1093.4472806663334,None,1093.4472806663334,None,1093.9472878828656,None,1098.9482895375359,1098.9482895375359,0.009867148452940455,None,1098.9482895375359,1098.9482895375359,1101.9887660082732,None,1101.9887660082732,None,None,0.008147368643221853,None,,NENA_006,001,2020_Sep_10_1330,test7,3.2.4,100.03436249695994,
130,46,Idrottare lyfter ofta vikter för att stärka ryggen.,3,,4,,cor,1,no,135,136,,,,,,,,,,,,,0,62,62,62,,,,,,,,,,,,,,,,,,,,,,,,,,,,,,,,,,,,,,,,,,,,,,,,,,,,,,,,,,,,,,,,,,,,,,,,,,,,,,,,,,,,,,,,,,,,,1107.489149382538,None,1107.9899096842983,None,1107.9899096842983,None,left,1,1.8251456697116737,1107.9899096842983,None,,,,,,,,,,,,,1109.8300060843385,None,,,,,,,,,,,,,,,,,,,,,,,,,,,,,,,,,1101.9986865911378,None,1101.9986865911378,None,1102.4988817582425,None,1106.9997533549658,1106.9997533549658,0.009871638740150956,None,1106.9997533549658,1106.9997533549658,1111.330465921771,None,1111.330465921771,None,None,0.00864835634638439,None,,NENA_006,001,2020_Sep_10_1330,test7,3.2.4,100.03436249695994,
170,16,Fartyget är kraftigt skadat och måste bogseras.  ,4,,0,,cor,1,no,173,199,,,,,,,,,,,,,0,63,63,63,,,,,,,,,,,,,,,,,,,,,,,,,,,,,,,,,,,,,,,,,,,,,,,,,,,,,,,,,,,,,,,,,,,,,,,,,,,,,,,,,,,,,,,,,,,,,1116.3307282186615,None,1116.8314660689884,None,1116.8314660689884,None,left,1,1.6714524570052163,1116.8314660689884,None,,,,,,,,,,,,,1118.5216815097374,None,,,,,,,,,,,,,,,,,,,,,,,,,,,,,,,,,1111.3405366085062,None,1111.3405366085062,None,1111.8406172732994,None,1115.8412962687962,1115.8412962687962,0.009872921678834246,None,1115.8412962687962,1115.8412962687962,1120.022043843801,None,1120.022043843801,None,None,0.0077426013704098295,None,,NENA_006,001,2020_Sep_10_1330,test7,3.2.4,100.03436249695994,
160,24,En polisassistent från förorten arresterade tre misstänkta smugglare som de äldre kollegorna på polisstationen inte hade upptäckt.,15,,16,,cor,1,no,161,162,,,,,,,,,,,,,0,64,64,64,,,,,,,,,,,,,,,,,,,,,,,,,,,,,,,,,,,,,,,,,,,,,,,,,,,,,,,,,,,,,,,,,,,,,,,,,,,,,,,,,,,,,,,,,,,,,1130.0231891234998,None,1130.523961292446,None,1130.523961292446,None,left,1,0.5388077839761536,1130.523961292446,None,,,,,,,,,,,,,1131.0737975413122,None,,,,,,,,,,,,,,,,,,,,,,,,,,,,,,,,,1120.032052949461,None,1120.032052949461,None,1120.532135217928,None,1129.5337802665372,1129.5337802665372,0.009865544779131596,None,1129.5337802665372,1129.5337802665372,1132.5743102999804,None,1132.5743102999804,None,None,0.00871731432107481,None,,NENA_006,001,2020_Sep_10_1330,test7,3.2.4,100.03436249695994,
170,111,Huset är alltför stor för endast en person. ,4,,0,,inc,1,no,174,199,,,,,,,,,,,,,0,65,65,65,,,,,,,,,,,,,,,,,,,,,,,,,,,,,,,,,,,,,,,,,,,,,,,,,,,,,,,,,,,,,,,,,,,,,,,,,,,,,,,,,,,,,,,,,,,,,1138.0746288858227,None,1138.5754202988546,None,1138.5754202988546,None,right,1,1.9110868706902693,1138.5754202988546,None,,,,,,,,,,,,,1140.4961737946232,None,,,,,,,,,,,,,,,,,,,,,,,,,,,,,,,,,1132.5843457058909,None,1132.5843457058909,None,1133.084406805864,None,1137.5852213117987,1137.5852213117987,0.009873242413959815,None,1137.5852213117987,1137.5852213117987,1141.9959879929738,None,1141.9959879929738,None,None,0.0078439535554935,None,,NENA_006,001,2020_Sep_10_1330,test7,3.2.4,100.03436249695994,
180,40,Fatet som med sina präglade mönster runt kanten såg väldigt inbjudande ut var otroligt kladdigt efter kalaset.  ,15,,0,,cor,1,no,181,199,,,,,,,,,,,,,0,66,66,66,,,,,,,,,,,,,,,,,,,,,,,,,,,,,,,,,,,,,,,,,,,,,,,,,,,,,,,,,,,,,,,,,,,,,,,,,,,,,,,,,,,,,,,,,,,,,1151.997137762959,None,1152.4978733681419,None,1152.4978733681419,None,left,1,0.5004183985010968,1152.4978733681419,None,,,,,,,,,,,,,1153.0180025216168,None,,,,,,,,,,,,,,,,,,,,,,,,,,,,,,,,,1142.0060548308911,None,1142.0060548308911,None,1142.5060691035887,None,1151.5076952288464,1151.5076952288464,0.00986811065740767,None,1151.5076952288464,1151.5076952288464,1154.5182779365596,None,1154.5182779365596,None,None,0.008973260662969551,None,,NENA_006,001,2020_Sep_10_1330,test7,3.2.4,100.03436249695994,
170,66,Kyrkan är helt renoverad och har öppnat igen för besökare.,4,,0,,cor,1,no,171,199,,,,,,,,,,,,,0,67,67,67,,,,,,,,,,,,,,,,,,,,,,,,,,,,,,,,,,,,,,,,,,,,,,,,,,,,,,,,,,,,,,,,,,,,,,,,,,,,,,,,,,,,,,,,,,,,,1161.0187722850524,None,1161.519543491795,None,1161.519543491795,None,left,1,2.2464840253242073,1161.519543491795,None,,,,,,,,,,,,,1163.7796664422594,None,,,,,,,,,,,,,,,,,,,,,,,,,,,,,,,,,1154.5281449567192,None,1154.5281449567192,None,1155.0283535946837,None,1160.529354126782,1160.529354126782,0.009871638739241462,None,1160.529354126782,1160.529354126782,1165.2801766350503,None,1165.2801766350503,None,None,0.008163405382219935,None,,NENA_006,001,2020_Sep_10_1330,test7,3.2.4,100.03436249695994,
130,18,Konstnärer målar ofta tavlor för privata samlingar.,3,,4,,cor,1,no,131,132,,,,,,,,,,,,,0,68,68,68,,,,,,,,,,,,,,,,,,,,,,,,,,,,,,,,,,,,,,,,,,,,,,,,,,,,,,,,,,,,,,,,,,,,,,,,,,,,,,,,,,,,,,,,,,,,,1170.280431555041,None,1170.7810414321966,None,1170.7810414321966,None,left,1,0.3128001075101565,1170.7810414321966,None,,,,,,,,,,,,,1171.1110547330672,None,,,,,,,,,,,,,,,,,,,,,,,,,,,,,,,,,1165.2902120409608,None,1165.2902120409608,None,1165.790251330969,None,1169.7910371311436,1169.7910371311436,0.009868752126749314,None,1169.7910371311436,1169.7910371311436,1172.6114879495144,None,1172.6114879495144,None,None,0.00818842269382003,None,,NENA_006,001,2020_Sep_10_1330,test7,3.2.4,100.03436249695994,
150,1,Pojken älskade hunden som katten ville inte vara nära.  ,6,,7,,inc,1,no,153,154,,,,,,,,,,,,,0,69,69,69,,,,,,,,,,,,,,,,,,,,,,,,,,,,,,,,,,,,,,,,,,,,,,,,,,,,,,,,,,,,,,,,,,,,,,,,,,,,,,,,,,,,,,,,,,,,,1178.611923443178,None,1179.1127119695975,None,1179.1127119695975,None,right,1,0.6610224831856613,1179.1127119695975,None,,,,,,,,,,,,,1179.7925381698433,None,,,,,,,,,,,,,,,,,,,,,,,,,,,,,,,,,1172.6214906404784,None,1172.6214906404784,None,1173.1215754748237,None,1178.122493738456,1178.122493738456,0.009872280208583106,None,1178.122493738456,1178.122493738456,1181.2930493248377,None,1181.2930493248377,None,None,0.008568172655031958,None,,NENA_006,001,2020_Sep_10_1330,test7,3.2.4,100.03436249695994,
170,104,Brödet är väldigt torrt och ska slängas.  ,4,,0,,cor,1,no,173,199,,,,,,,,,,,,,0,70,70,70,,,,,,,,,,,,,,,,,,,,,,,,,,,,,,,,,,,,,,,,,,,,,,,,,,,,,,,,,,,,,,,,,,,,,,,,,,,,,,,,,,,,,,,,,,,,,1186.2933161120154,None,1186.7940279828254,None,1186.7940279828254,None,left,1,0.4035625934739073,1186.7940279828254,None,,,,,,,,,,,,,1187.213852791082,None,,,,,,,,,,,,,,,,,,,,,,,,,,,,,,,,,1181.3030917869128,None,1181.3030917869128,None,1181.8031955446095,None,1185.803857861899,1185.803857861899,0.009868110656498175,None,1185.803857861899,1185.803857861899,1188.714404679392,None,1188.714404679392,None,None,0.008655091776745394,None,,NENA_006,001,2020_Sep_10_1330,test7,3.2.4,100.03436249695994,
170,21,Fästningen är verkligen vackert och besöks av många turister. ,4,,0,,inc,1,no,172,199,,,,,,,,,,,,,0,71,71,71,,,,,,,,,,,,,,,,,,,,,,,,,,,,,,,,,,,,,,,,,,,,,,,,,,,,,,,,,,,,,,,,,,,,,,,,,,,,,,,,,,,,,,,,,,,,,1194.7148103447225,None,1195.2155767404438,None,1195.2155767404438,None,right,1,0.3338842487482907,1195.2155767404438,None,,,,,,,,,,,,,1195.5656157578278,None,,,,,,,,,,,,,,,,,,,,,,,,,,,,,,,,,1188.7244404060375,None,1188.7244404060375,None,1189.2245152976056,None,1194.2254130342126,1194.2254130342126,0.009870997270809312,None,1194.2254130342126,1194.2254130342126,1197.0659306231464,None,1197.0659306231464,None,None,0.007726564633230737,None,,NENA_006,001,2020_Sep_10_1330,test7,3.2.4,100.03436249695994,
170,10,Leksaken är väldigt farlig för småbarn.  ,4,,0,,cor,1,no,171,199,,,,,,,,,,,,,0,72,72,72,,,,,,,,,,,,,,,,,,,,,,,,,,,,,,,,,,,,,,,,,,,,,,,,,,,,,,,,,,,,,,,,,,,,,,,,,,,,,,,,,,,,,,,,,,,,,1201.5660282227354,None,1202.0668225223808,None,1202.0668225223808,None,left,1,0.7865324113708994,1202.0668225223808,None,,,,,,,,,,,,,1202.8669428620642,None,,,,,,,,,,,,,,,,,,,,,,,,,,,,,,,,,1197.0759390873363,None,1197.0759390873363,None,1197.5759703589765,None,1201.0766328366335,1201.0766328366335,0.009871318004115892,None,1201.0766328366335,1201.0766328366335,1204.3671874864694,None,1204.3671874864694,None,None,0.007692887481425714,None,,NENA_006,001,2020_Sep_10_1330,test7,3.2.4,100.03436249695994,
160,37,Den tuffa bostadsmarknaden ställde väldigt höga krav som många unga bostadssökande utan hjälp från föräldrar kunde inte klara av.,16,,17,,inc,1,no,163,164,,,,,,,,,,,,,0,73,73,73,,,,,,,,,,,,,,,,,,,,,,,,,,,,,,,,,,,,,,,,,,,,,,,,,,,,,,,,,,,,,,,,,,,,,,,,,,,,,,,,,,,,,,,,,,,,,1215.3685159057186,None,1215.8692236069774,None,1215.8692236069774,None,left,0,0.2478432992575108,1215.8692236069774,None,,,,,,,,,,,,,1216.1291711155254,None,,,,,,,,,,,,,,,,,,,,,,,,,,,,,,,,,1204.377234759566,None,1204.377234759566,None,1204.8772984254174,None,1214.8790669569107,1214.8790669569107,0.009871638740150956,None,1214.8790669569107,1214.8790669569107,1217.6296463482267,None,1217.6296463482267,None,None,0.007654720045138674,None,,NENA_006,001,2020_Sep_10_1330,test7,3.2.4,100.03436249695994,
180,11,Lyset som satt på den fina gamla damcykeln med den mjuka sadeln var väldigt stark och hade ett klart sken.,15,,0,,inc,1,no,182,199,,,,,,,,,,,,,0,74,74,74,,,,,,,,,,,,,,,,,,,,,,,,,,,,,,,,,,,,,,,,,,,,,,,,,,,,,,,,,,,,,,,,,,,,,,,,,,,,,,,,,,,,,,,,,,,,,1229.1309941719292,None,1229.6317724348355,None,1229.6317724348355,None,left,0,1.5091208948751955,1229.6317724348355,None,,,,,,,,,,,,,1231.1518165935986,None,,,,,,,,,,,,,,,,,,,,,,,,,,,,,,,,,1217.6396304365753,None,1217.6396304365753,None,1218.1397008378553,None,1228.6415522792859,1228.6415522792859,0.009870997270809312,None,1228.6415522792859,1228.6415522792859,1232.6522616772318,None,1232.6522616772318,None,None,0.007708603485298227,None,,NENA_006,001,2020_Sep_10_1330,test7,3.2.4,100.03436249695994,
170,35,Strandbadet var helt tom och solen strålade.  ,4,,0,,inc,1,no,174,199,,,,,,,,,,,,,0,75,75,75,,,,,,,,,,,,,,,,,,,,,,,,,,,,,,,,,,,,,,,,,,,,,,,,,,,,,,,,,,,,,,,,,,,,,,,,,,,,,,,,,,,,,,,,,,,,,1237.6525422560035,None,1238.153333027566,None,1238.153333027566,None,right,1,0.4754228968058669,1238.153333027566,None,,,,,,,,,,,,,1238.6430869951355,None,,,,,,,,,,,,,,,,,,,,,,,,,,,,,,,,,1232.6623374957226,None,1232.6623374957226,None,1233.1623639563404,None,1237.163126022142,1237.163126022142,0.009868431391623744,None,1237.163126022142,1237.163126022142,1240.1436443359362,None,1240.1436443359362,None,None,0.0077820517453801585,None,,NENA_006,001,2020_Sep_10_1330,test7,3.2.4,100.03436249695994,
150,47,Djuren fick rättigheter men djurrättsaktivisterna inte hade krävt dessa från början. ,6,,7,,inc,1,no,157,158,,,,,,,,,,,,,0,76,76,76,,,,,,,,,,,,,,,,,,,,,,,,,,,,,,,,,,,,,,,,,,,,,,,,,,,,,,,,,,,,,,,,,,,,,,,,,,,,,,,,,,,,,,,,,,,,,1247.1442135759971,None,1247.6450197428285,None,1247.6450197428285,None,right,1,0.27962458637193777,1247.6450197428285,None,,,,,,,,,,,,,1247.935243009506,None,,,,,,,,,,,,,,,,,,,,,,,,,,,,,,,,,1240.1536896846246,None,1240.1536896846246,None,1240.6537280124294,None,1246.654837433981,1246.654837433981,0.009866827717814886,None,1246.654837433981,1246.654837433981,1249.4353218140377,None,1249.4353218140377,None,None,0.008122992801872897,None,,NENA_006,001,2020_Sep_10_1330,test7,3.2.4,100.03436249695994,
170,24,Vinet är ganska dyrt att importera.  ,4,,0,,cor,1,no,173,199,,,,,,,,,,,,,0,77,77,77,,,,,,,,,,,,,,,,,,,,,,,,,,,,,,,,,,,,,,,,,,,,,,,,,,,,,,,,,,,,,,,,,,,,,,,,,,,,,,,,,,,,,,,,,,,,,1253.9354280734651,None,1254.436197676534,None,1254.436197676534,None,left,1,1.2240749287730068,1254.436197676534,None,,,,,,,,,,,,,1255.676455919337,None,,,,,,,,,,,,,,,,,,,,,,,,,,,,,,,,,1249.4451830609714,None,1249.4451830609714,None,1249.945358021785,None,1253.4460727792084,1253.4460727792084,0.009869714330307033,None,1253.4460727792084,1253.4460727792084,1257.176652112792,None,1257.176652112792,None,None,0.00816917860720423,None,,NENA_006,001,2020_Sep_10_1330,test7,3.2.4,100.03436249695994,
150,74,Fotografen publicerade bilder som tjejen inte hade godkänt.  ,6,,7,,cor,1,no,151,152,,,,,,,,,,,,,0,78,78,78,,,,,,,,,,,,,,,,,,,,,,,,,,,,,,,,,,,,,,,,,,,,,,,,,,,,,,,,,,,,,,,,,,,,,,,,,,,,,,,,,,,,,,,,,,,,,1262.6773170921806,None,1263.1776418361296,None,1263.1776418361296,None,left,1,0.3865684619577223,1263.1776418361296,None,,,,,,,,,,,,,1263.5777129109538,None,,,,,,,,,,,,,,,,,,,,,,,,,,,,,,,,,1257.186549602754,None,1257.186549602754,None,1257.6867643346795,None,1262.1876349691984,1262.1876349691984,0.009872280208583106,None,1262.1876349691984,1262.1876349691984,1265.0780993001254,None,1265.0780993001254,None,None,0.008325376438733656,None,,NENA_006,001,2020_Sep_10_1330,test7,3.2.4,100.03436249695994,
160,41,Biljardspelarna från Tyskland hade en vinnande strategi som motståndarna från den andra sidan av Atlanten kunde inte överträffa.,16,,17,,inc,1,no,163,164,,,,,,,,,,,,,0,79,79,79,,,,,,,,,,,,,,,,,,,,,,,,,,,,,,,,,,,,,,,,,,,,,,,,,,,,,,,,,,,,,,,,,,,,,,,,,,,,,,,,,,,,,,,,,,,,,1275.5793239616778,None,1276.0801124880973,None,1276.0801124880973,None,right,1,0.6678730570283733,1276.0801124880973,None,,,,,,,,,,,,,1276.7599733276975,None,,,,,,,,,,,,,,,,,,,,,,,,,,,,,,,,,1265.0881427244049,None,1265.0881427244049,None,1265.5881249236254,None,1275.0899317829235,1275.0899317829235,0.009865224044006027,None,1275.0899317829235,1275.0899317829235,1278.260426750434,None,1278.260426750434,None,None,0.008153783339366782,None,,NENA_006,001,2020_Sep_10_1330,test7,3.2.4,100.03436249695994,
170,83,Materialet är väldigt eftertraktad inom industrin.  ,4,,0,,inc,1,no,174,199,,,,,,,,,,,,,0,80,80,80,,,,,,,,,,,,,,,,,,,,,,,,,,,,,,,,,,,,,,,,,,,,,,,,,,,,,,,,,,,,,,,,,,,,,,,,,,,,,,,,,,,,,,,,,,,,,1282.7606420596821,None,1283.2614475850442,None,1283.2614475850442,None,left,0,0.2784054735311656,1283.2614475850442,None,,,,,,,,,,,,,1283.5515839326,None,,,,,,,,,,,,,,,,,,,,,,,,,,,,,,,,,1278.270485569983,None,1278.270485569983,None,1278.7705684799193,None,1282.2712226184722,1282.2712226184722,0.009870035066342098,None,1282.2712226184722,1282.2712226184722,1285.0516938484034,None,1285.0516938484034,None,None,0.008158273625667789,None,,NENA_006,001,2020_Sep_10_1330,test7,3.2.4,100.03436249695994,
150,83,Sekreteraren skrev brev men brevbäraren inte hade tagit med sig dem. ,6,,7,,inc,1,no,157,158,,,,,,,,,,,,,0,81,81,81,,,,,,,,,,,,,,,,,,,,,,,,,,,,,,,,,,,,,,,,,,,,,,,,,,,,,,,,,,,,,,,,,,,,,,,,,,,,,,,,,,,,,,,,,,,,,1292.05230991574,None,1292.5530554637007,None,1292.5530554637007,None,right,1,0.34668477321338287,1292.5530554637007,None,,,,,,,,,,,,,1292.9130003742976,None,,,,,,,,,,,,,,,,,,,,,,,,,,,,,,,,,1285.0616888417344,None,1285.0616888417344,None,1285.5616594945031,None,1291.5629122844948,1291.5629122844948,0.009872600943708676,None,1291.5629122844948,1291.5629122844948,1294.4134271760495,None,1294.4134271760495,None,None,0.008714748442798737,None,,NENA_006,001,2020_Sep_10_1330,test7,3.2.4,100.03436249695994,
170,23,Oljudet är för hög för små barn.  ,4,,0,,inc,1,no,174,199,,,,,,,,,,,,,0,82,82,82,,,,,,,,,,,,,,,,,,,,,,,,,,,,,,,,,,,,,,,,,,,,,,,,,,,,,,,,,,,,,,,,,,,,,,,,,,,,,,,,,,,,,,,,,,,,,1299.4136147417403,None,1299.9143593274966,None,1299.9143593274966,None,right,1,0.2811695657346718,1299.9143593274966,None,,,,,,,,,,,,,1300.214141131636,None,,,,,,,,,,,,,,,,,,,,,,,,,,,,,,,,,1294.423425055993,None,1294.423425055993,None,1294.92351341842,None,1298.9242414863365,1298.9242414863365,0.009869714330307033,None,1298.9242414863365,1298.9242414863365,1301.7146875674543,None,1301.7146875674543,None,None,0.00871122036005545,None,,NENA_006,001,2020_Sep_10_1330,test7,3.2.4,100.03436249695994,
150,86,Sjön lagrar vatten som bönderna inte får använda.  ,6,,7,,cor,1,no,151,152,,,,,,,,,,,,,0,83,83,83,,,,,,,,,,,,,,,,,,,,,,,,,,,,,,,,,,,,,,,,,,,,,,,,,,,,,,,,,,,,,,,,,,,,,,,,,,,,,,,,,,,,,,,,,,,,,1307.2153037951584,None,1307.7157840954687,None,1307.7157840954687,None,left,1,0.2556429272690366,1307.7157840954687,None,,,,,,,,,,,,,1307.9854909214428,None,,,,,,,,,,,,,,,,,,,,,,,,,,,,,,,,,1301.7245898684378,None,1301.7245898684378,None,1302.224813901671,None,1306.7256335393631,1306.7256335393631,0.009871638740150956,None,1306.7256335393631,1306.7256335393631,1309.4861284459348,None,1309.4861284459348,None,None,0.007675247070437763,None,,NENA_006,001,2020_Sep_10_1330,test7,3.2.4,100.03436249695994,
180,42,Vasen som hade prytt det lilla vardagsrummet sedan många år tillbaka var nu sprucken men fortfarande mycket omtyckt. ,14,,0,,cor,1,no,181,199,,,,,,,,,,,,,0,84,84,84,,,,,,,,,,,,,,,,,,,,,,,,,,,,,,,,,,,,,,,,,,,,,,,,,,,,,,,,,,,,,,,,,,,,,,,,,,,,,,,,,,,,,,,,,,,,,1319.987320713276,None,1320.4880713929933,None,1320.4880713929933,None,left,1,0.2429799980172902,1320.4880713929933,None,,,,,,,,,,,,,1320.7480981230283,None,,,,,,,,,,,,,,,,,,,,,,,,,,,,,,,,,1309.4961170245697,None,1309.4961170245697,None,1309.9962150090405,None,1319.4978643875684,1319.4978643875684,0.009868752126749314,None,1319.4978643875684,1319.4978643875684,1322.2484036870392,None,1322.2484036870392,None,None,0.008613396256805572,None,,NENA_006,001,2020_Sep_10_1330,test7,3.2.4,100.03436249695994,
150,3,Mannen lagade mat men kvinnan inte kunde äta den.  ,6,,7,,inc,1,no,157,158,,,,,,,,,,,,,0,85,85,85,,,,,,,,,,,,,,,,,,,,,,,,,,,,,,,,,,,,,,,,,,,,,,,,,,,,,,,,,,,,,,,,,,,,,,,,,,,,,,,,,,,,,,,,,,,,,1328.248797805918,None,1328.7495860116023,None,1328.7495860116023,None,right,1,0.46135386634523456,1328.7495860116023,None,,,,,,,,,,,,,1329.2295463431265,None,,,,,,,,,,,,,,,,,,,,,,,,,,,,,,,,,1322.2584156793118,None,1322.2584156793118,None,1322.7584754963455,None,1327.7593594413574,1327.7593594413574,0.00987292167792475,None,1327.7593594413574,1327.7593594413574,1330.729884942818,None,1330.729884942818,None,None,0.007581271783237753,None,,NENA_006,001,2020_Sep_10_1330,test7,3.2.4,100.03436249695994,
170,18,Kakan är för söt för morföräldrarna.  ,4,,0,,cor,1,no,171,199,,,,,,,,,,,,,0,86,86,86,,,,,,,,,,,,,,,,,,,,,,,,,,,,,,,,,,,,,,,,,,,,,,,,,,,,,,,,,,,,,,,,,,,,,,,,,,,,,,,,,,,,,,,,,,,,,1335.2300534247897,None,1335.730857346478,None,1335.730857346478,None,left,1,2.3679680907398506,1335.730857346478,None,,,,,,,,,,,,,1338.1111326716155,None,,,,,,,,,,,,,,,,,,,,,,,,,,,,,,,,,1330.7398132233175,None,1330.7398132233175,None,1331.2400253893647,None,1334.7406221163947,1334.7406221163947,0.009870676536593237,None,1334.7406221163947,1334.7406221163947,1339.61144529179,None,1339.61144529179,None,None,0.007846519433769572,None,,NENA_006,001,2020_Sep_10_1330,test7,3.2.4,100.03436249695994,
160,5,Den nya telefonen kräver en typ av adapter som de äldre modellerna av samma märke har inte krävt.,16,,17,,inc,1,yes,163,164,,,,,,,,,,,,,0,87,87,87,,,,,,,,,,,,,,,,,,,,,,,,,,,,,,,,,,,,,,,,,,,,,,,,,,,,,,,,,,,,,,,,,,,,,,,,,,,,,,,,,,,,,,,,,,,,,1350.1127235160484,None,1350.6135146083461,None,1350.6135146083461,None,right,1,1.2370172180044392,1350.6135146083461,None,,,,,,,,,,,,,1351.8641877504342,None,,,,,,,,,,,,,,,,,,,,,,,,,,,,,,,,,1339.621541637306,None,1339.621541637306,None,1340.121645715738,None,1349.6233380727244,1349.6233380727244,0.009871959475276526,None,1349.6233380727244,1349.6233380727244,1353.3636384921492,None,1353.3636384921492,None,space,0.007852613394788932,None,24.317771817100038,NENA_006,001,2020_Sep_10_1330,test7,3.2.4,100.03436249695994,
170,88,Skrovet var för smalt för det öppna havet. ,4,,0,,cor,1,no,173,199,,,,,,,,,,,,,0,88,88,88,,,,,,,,,,,,,,,,,,,,,,,,,,,,,,,,,,,,,,,,,,,,,,,,,,,,,,,,,,,,,,,,,,,,,,,,,,,,,,,,,,,,,,,,,,,,,1383.178687431463,None,1383.6794111694599,None,1383.6794111694599,None,left,1,1.3705442323707757,1383.6794111694599,None,,,,,,,,,,,,,1385.0595652568563,None,,,,,,,,,,,,,,,,,,,,,,,,,,,,,,,,,1377.6886313317455,None,1377.6886313317455,None,1378.1884329572931,None,1382.6892785745013,1382.6892785745013,0.009870035065432603,None,1382.6892785745013,1382.6892785745013,1386.5599702486434,None,1386.5599702486434,None,None,0.007603081748129625,None,,NENA_006,001,2020_Sep_10_1330,test7,3.2.4,100.03436249695994,
180,45,Citronen som den här gången inte köpts i affären utan plockats från gården var otroligt surt men smakade ändå bra. ,16,,0,,inc,1,no,182,199,,,,,,,,,,,,,0,89,89,89,,,,,,,,,,,,,,,,,,,,,,,,,,,,,,,,,,,,,,,,,,,,,,,,,,,,,,,,,,,,,,,,,,,,,,,,,,,,,,,,,,,,,,,,,,,,,1398.0613446933312,None,1398.5620613751635,None,1398.5620613751635,None,left,0,1.7995542428243425,1398.5620613751635,None,,,,,,,,,,,,,1400.3729978533229,None,,,,,,,,,,,,,,,,,,,,,,,,,,,,,,,,,1386.5698427212938,None,1386.5698427212938,None,1387.0699272349038,None,1397.571966626907,1397.571966626907,0.009868431392533239,None,1397.571966626907,1397.571966626907,1401.8727126238964,None,1401.8727126238964,None,None,0.0077474123927459,None,,NENA_006,001,2020_Sep_10_1330,test7,3.2.4,100.03436249695994,
170,48,Arbetet var ganska välbetalt och det fanns många sökande. ,4,,0,,cor,1,no,173,199,,,,,,,,,,,,,0,90,90,90,,,,,,,,,,,,,,,,,,,,,,,,,,,,,,,,,,,,,,,,,,,,,,,,,,,,,,,,,,,,,,,,,,,,,,,,,,,,,,,,,,,,,,,,,,,,,1407.8731186099612,None,1408.373899759481,None,1408.373899759481,None,left,1,0.25975218107669207,1408.373899759481,None,,,,,,,,,,,,,1408.6442884675653,None,,,,,,,,,,,,,,,,,,,,,,,,,,,,,,,,,1401.882730389395,None,1401.882730389395,None,1402.3827802636506,None,1407.3837174506334,1407.3837174506334,0.009871638740150956,None,1407.3837174506334,1407.3837174506334,1410.144168416542,None,1410.144168416542,None,None,0.00791259079505835,None,,NENA_006,001,2020_Sep_10_1330,test7,3.2.4,100.03436249695994,
160,1,En kritisk journalist publicerade en uppmärksammad artikel som många äldre på landsbygden i norr kunde inte förstå.,15,,16,,inc,1,no,163,164,,,,,,,,,,,,,0,91,91,91,,,,,,,,,,,,,,,,,,,,,,,,,,,,,,,,,,,,,,,,,,,,,,,,,,,,,,,,,,,,,,,,,,,,,,,,,,,,,,,,,,,,,,,,,,,,,1420.145309847424,None,1420.6459242148658,None,1420.6459242148658,None,left,0,0.6192650619450433,1420.6459242148658,None,,,,,,,,,,,,,1421.2760259423112,None,,,,,,,,,,,,,,,,,,,,,,,,,,,,,,,,,1410.1540931689597,None,1410.1540931689597,None,1410.654239584379,None,1419.6558952172354,1419.6558952172354,0.009870997268990322,None,1419.6558952172354,1419.6558952172354,1422.776438310998,None,1422.776438310998,None,None,0.007692566747209639,None,,NENA_006,001,2020_Sep_10_1330,test7,3.2.4,100.03436249695994,
180,39,Hjulet som alldeles nyss hade rullat utan några som helst problem var fullständigt förstörd efter krocken.  ,14,,0,,inc,1,no,182,199,,,,,,,,,,,,,0,92,92,92,,,,,,,,,,,,,,,,,,,,,,,,,,,,,,,,,,,,,,,,,,,,,,,,,,,,,,,,,,,,,,,,,,,,,,,,,,,,,,,,,,,,,,,,,,,,,1432.2775103028025,None,1432.778272849706,None,1432.778272849706,None,right,1,0.6867794092122494,1432.778272849706,None,,,,,,,,,,,,,1433.478252098167,None,,,,,,,,,,,,,,,,,,,,,,,,,,,,,,,,,1422.7864435678412,None,1422.7864435678412,None,1423.2864546331903,None,1431.7880559015039,1431.7880559015039,0.009868752126749314,None,1431.7880559015039,1431.7880559015039,1434.9786060931265,None,1434.9786060931265,None,None,0.008480291329760803,None,,NENA_006,001,2020_Sep_10_1330,test7,3.2.4,100.03436249695994,
180,46,Lekparken som i utkanten nyligen hade fått en ganska stor grill installerad blev plötsligt populär bland de vuxna. ,15,,0,,cor,1,no,181,199,,,,,,,,,,,,,0,93,93,93,,,,,,,,,,,,,,,,,,,,,,,,,,,,,,,,,,,,,,,,,,,,,,,,,,,,,,,,,,,,,,,,,,,,,,,,,,,,,,,,,,,,,,,,,,,,,1445.4798695635864,None,1445.9805926601139,None,1445.9805926601139,None,left,1,1.788205363904126,1445.9805926601139,None,,,,,,,,,,,,,1447.780690548364,None,,,,,,,,,,,,,,,,,,,,,,,,,,,,,,,,,1434.9886828738227,None,1434.9886828738227,None,1435.4887641800851,None,1444.9904863654056,1444.9904863654056,0.009871638740150956,None,1444.9904863654056,1444.9904863654056,1449.2811837422114,None,1449.2811837422114,None,None,0.008590303354139905,None,,NENA_006,001,2020_Sep_10_1330,test7,3.2.4,100.03436249695994,
170,118,Marken var hemskt hård att ligga på.  ,4,,0,,cor,1,no,171,199,,,,,,,,,,,,,0,94,94,94,,,,,,,,,,,,,,,,,,,,,,,,,,,,,,,,,,,,,,,,,,,,,,,,,,,,,,,,,,,,,,,,,,,,,,,,,,,,,,,,,,,,,,,,,,,,,1454.28144251102,None,1454.782225905683,None,1454.782225905683,None,left,1,0.32235896570728073,1454.782225905683,None,,,,,,,,,,,,,1455.1220184095346,None,,,,,,,,,,,,,,,,,,,,,,,,,,,,,,,,,1449.2912319775132,None,1449.2912319775132,None,1449.7913132837757,None,1453.7920516152044,1453.7920516152044,0.009870997269899817,None,1453.7920516152044,1453.7920516152044,1456.6225356584891,None,1456.6225356584891,None,None,0.008726615628802392,None,,NENA_006,001,2020_Sep_10_1330,test7,3.2.4,100.03436249695994,
150,64,Pojken målade bilder men föräldrarna kunde inte tolka dem.  ,6,,7,,cor,1,no,155,156,,,,,,,,,,,,,0,95,95,95,,,,,,,,,,,,,,,,,,,,,,,,,,,,,,,,,,,,,,,,,,,,,,,,,,,,,,,,,,,,,,,,,,,,,,,,,,,,,,,,,,,,,,,,,,,,,1462.6229416445549,None,1463.123641968914,None,1463.123641968914,None,left,1,0.42085629125995183,1463.123641968914,None,,,,,,,,,,,,,1463.5636310511027,None,,,,,,,,,,,,,,,,,,,,,,,,,,,,,,,,,1456.6325713851347,None,1456.6325713851347,None,1457.1326520499288,None,1462.1335545975571,1462.1335545975571,0.00987388388330146,None,1462.1335545975571,1462.1335545975571,1465.0640536833025,None,1465.0640536833025,None,None,0.007705716872806079,None,,NENA_006,001,2020_Sep_10_1330,test7,3.2.4,100.03436249695994,
170,41,Teorin var för enkelt för forskningsfrågan.  ,4,,0,,inc,1,no,172,199,,,,,,,,,,,,,0,96,96,96,,,,,,,,,,,,,,,,,,,,,,,,,,,,,,,,,,,,,,,,,,,,,,,,,,,,,,,,,,,,,,,,,,,,,,,,,,,,,,,,,,,,,,,,,,,,,1469.5641888088585,None,1470.0649263384503,None,1470.0649263384503,None,left,0,0.5674417008431192,1470.0649263384503,None,,,,,,,,,,,,,1470.6450489296922,None,,,,,,,,,,,,,,,,,,,,,,,,,,,,,,,,,1465.0740743354136,None,1465.0740743354136,None,1465.5741296621609,None,1469.0747911776134,1469.0747911776134,0.009868431391623744,None,1469.0747911776134,1469.0747911776134,1472.145306704223,None,1472.145306704223,None,None,0.0077069998123988626,None,,NENA_006,001,2020_Sep_10_1330,test7,3.2.4,100.03436249695994,
180,21,Krukan som han hade använt för att sätta den nyligen inköpta rosen i var nu trasigt och blomman låg på golvet.,16,,0,,inc,1,no,182,199,,,,,,,,,,,,,0,97,97,97,,,,,,,,,,,,,,,,,,,,,,,,,,,,,,,,,,,,,,,,,,,,,,,,,,,,,,,,,,,,,,,,,,,,,,,,,,,,,,,,,,,,,,,,,,,,,1484.146811527593,None,1484.6475881868255,None,1484.6475881868255,None,right,1,0.3045995610427781,1484.6475881868255,None,,,,,,,,,,,,,1484.967367482819,None,,,,,,,,,,,,,,,,,,,,,,,,,,,,,,,,,1472.1553687311189,None,1472.1553687311189,None,1472.6554006442284,None,1483.657418065899,1483.657418065899,0.009869714331216528,None,1483.657418065899,1483.657418065899,1486.4678779963442,None,1486.4678779963442,None,None,0.007734262267149461,None,,NENA_006,001,2020_Sep_10_1330,test7,3.2.4,100.03436249695994,
140,61,Fotografer skannar gärna bilder av analogt film.,3,,4,,inc,1,no,137,138,,,,,,,,,,,,,0,98,98,98,,,,,,,,,,,,,,,,,,,,,,,,,,,,,,,,,,,,,,,,,,,,,,,,,,,,,,,,,,,,,,,,,,,,,,,,,,,,,,,,,,,,,,,,,,,,,1491.468132916336,None,1491.9689156695295,None,1491.9689156695295,None,right,1,0.2710430070037546,1491.9689156695295,None,,,,,,,,,,,,,1492.25863634483,None,,,,,,,,,,,,,,,,,,,,,,,,,,,,,,,,,1486.4779310426675,None,1486.4779310426675,None,1486.977893356332,None,1490.9787320777423,1490.9787320777423,0.009870035066342098,None,1490.9787320777423,1490.9787320777423,1493.7592113260425,None,1493.7592113260425,None,None,0.007788145707309013,None,,NENA_006,001,2020_Sep_10_1330,test7,3.2.4,100.03436249695994,
160,27,Fruktståndet på torget har solmogna apelsiner från Spanien som de förbipasserande resenärerna från landsbygden i söder kan inte motstå.,17,,18,,inc,1,no,163,164,,,,,,,,,,,,,0,99,99,99,,,,,,,,,,,,,,,,,,,,,,,,,,,,,,,,,,,,,,,,,,,,,,,,,,,,,,,,,,,,,,,,,,,,,,,,,,,,,,,,,,,,,,,,,,,,,1504.760500615651,None,1505.2613006885213,None,1505.2613006885213,None,right,1,0.08236212173687818,1505.2613006885213,None,,,,,,,,,,,,,1505.3610395783498,None,,,,,,,,,,,,,,,,,,,,,,,,,,,,,,,,,1493.7692470526881,None,1493.7692470526881,None,1494.269281531676,None,1504.2710705901936,1504.2710705901936,0.009871959475276526,None,1504.2710705901936,1504.2710705901936,1506.8615927495985,None,1506.8615927495985,None,None,0.007681982500798767,None,,NENA_006,001,2020_Sep_10_1330,test7,3.2.4,100.03436249695994,
150,36,Säljarna satte priser men köparna kunde inte acceptera dem i år. ,6,,7,,cor,1,no,155,156,,,,,,,,,,,,,0,100,100,100,,,,,,,,,,,,,,,,,,,,,,,,,,,,,,,,,,,,,,,,,,,,,,,,,,,,,,,,,,,,,,,,,,,,,,,,,,,,,,,,,,,,,,,,,,,,,1513.8621597445162,None,1514.362851409036,None,1514.362851409036,None,left,1,0.5006326493230517,1514.362851409036,None,,,,,,,,,,,,,1514.882865418731,None,,,,,,,,,,,,,,,,,,,,,,,,,,,,,,,,,1506.8715620841476,None,1506.8715620841476,None,1507.371641145267,None,1513.3727723767825,1513.3727723767825,0.009873563147266395,None,1513.3727723767825,1513.3727723767825,1516.3832511664323,None,1516.3832511664323,None,None,0.007971605992679542,None,,NENA_006,001,2020_Sep_10_1330,test7,3.2.4,100.03436249695994,
140,9,Meteorologer förutspår ofta väder utifrån datormodell.,3,,4,,inc,1,no,131,132,,,,,,,,,,,,,0,101,101,101,,,,,,,,,,,,,,,,,,,,,,,,,,,,,,,,,,,,,,,,,,,,,,,,,,,,,,,,,,,,,,,,,,,,,,,,,,,,,,,,,,,,,,,,,,,,,1520.8834270253037,None,1521.384030487764,None,1521.384030487764,None,left,0,1.8953391144705165,1521.384030487764,None,,,,,,,,,,,,,1523.2942164144997,None,,,,,,,,,,,,,,,,,,,,,,,,,,,,,,,,,1516.3932955529162,None,1516.3932955529162,None,1516.8933563321543,None,1520.3940245830372,1520.3940245830372,0.009871959475276526,None,1520.3940245830372,1520.3940245830372,1524.7947378330073,None,1524.7947378330073,None,None,0.008146085705448058,None,,NENA_006,001,2020_Sep_10_1330,test7,3.2.4,100.03436249695994,
140,5,Sotare inspekterar ofta skorstenar på gamla husen.,3,,4,,inc,1,no,131,132,,,,,,,,,,,,,0,102,102,102,,,,,,,,,,,,,,,,,,,,,,,,,,,,,,,,,,,,,,,,,,,,,,,,,,,,,,,,,,,,,,,,,,,,,,,,,,,,,,,,,,,,,,,,,,,,,1529.7950318826397,None,1530.2957472815324,None,1530.2957472815324,None,right,1,0.13567080553457345,1530.2957472815324,None,,,,,,,,,,,,,1530.445903110518,None,,,,,,,,,,,,,,,,,,,,,,,,,,,,,,,,,1524.8047822194912,None,1524.8047822194912,None,1525.304816377744,None,1529.3056182146556,1529.3056182146556,0.009870997270809312,None,1529.3056182146556,1529.3056182146556,1531.9460187995473,None,1531.9460187995473,None,None,0.008110163410492532,None,,NENA_006,001,2020_Sep_10_1330,test7,3.2.4,100.03436249695994,
160,14,Den unge chauffören begärde en stor summa pengar som det äldre lättretade paret från Paris inte kunde betala.,16,,17,,cor,1,no,161,162,,,,,,,,,,,,,0,103,103,103,,,,,,,,,,,,,,,,,,,,,,,,,,,,,,,,,,,,,,,,,,,,,,,,,,,,,,,,,,,,,,,,,,,,,,,,,,,,,,,,,,,,,,,,,,,,,1542.4472543660822,None,1542.9480865124297,None,1542.9480865124297,None,left,1,0.4907020595337599,1542.9480865124297,None,,,,,,,,,,,,,1543.457543537339,None,,,,,,,,,,,,,,,,,,,,,,,,,,,,,,,,,1531.9560859582007,None,1531.9560859582007,None,1532.4560405742313,None,1541.9579070901955,1541.9579070901955,0.009872280209492601,None,1541.9579070901955,1541.9579070901955,1544.958389539428,None,1544.958389539428,None,None,0.008040884701586037,None,,NENA_006,001,2020_Sep_10_1330,test7,3.2.4,100.03436249695994,
170,6,Mangon var mycket saftig men smakade inget.  ,4,,0,,cor,1,no,171,199,,,,,,,,,,,,,0,104,104,104,,,,,,,,,,,,,,,,,,,,,,,,,,,,,,,,,,,,,,,,,,,,,,,,,,,,,,,,,,,,,,,,,,,,,,,,,,,,,,,,,,,,,,,,,,,,,1549.9586181591685,None,1550.4594214393874,None,1550.4594214393874,None,left,1,0.19560554883992154,1550.4594214393874,None,,,,,,,,,,,,,1550.6696710961214,None,,,,,,,,,,,,,,,,,,,,,,,,,,,,,,,,,1544.9684329637084,None,1544.9684329637084,None,1545.4685235712795,None,1549.4692484318475,1549.4692484318475,0.0098677899222821,None,1549.4692484318475,1549.4692484318475,1552.169683829291,None,1552.169683829291,None,None,0.008051789684031974,None,,NENA_006,001,2020_Sep_10_1330,test7,3.2.4,100.03436249695994,
170,3,Häftet är oerhört tjock men lätt att läsa. ,4,,0,,inc,1,no,174,199,,,,,,,,,,,,,0,105,105,105,,,,,,,,,,,,,,,,,,,,,,,,,,,,,,,,,,,,,,,,,,,,,,,,,,,,,,,,,,,,,,,,,,,,,,,,,,,,,,,,,,,,,,,,,,,,,1557.6700332056707,None,1558.1708137137211,None,1558.1708137137211,None,right,1,2.603806287748739,1558.1708137137211,None,,,,,,,,,,,,,1560.790944438796,None,,,,,,,,,,,,,,,,,,,,,,,,,,,,,,,,,1552.1797400829619,None,1552.1797400829619,None,1552.6797899572175,None,1557.1806224243,1557.1806224243,0.009869393596090958,None,1557.1806224243,1557.1806224243,1562.2914870257982,None,1562.2914870257982,None,None,0.008632961078546941,None,,NENA_006,001,2020_Sep_10_1330,test7,3.2.4,100.03436249695994,
130,28,Ormar äter gärna möss och andra gnagare.,3,,4,,cor,1,no,133,134,,,,,,,,,,,,,0,106,106,106,,,,,,,,,,,,,,,,,,,,,,,,,,,,,,,,,,,,,,,,,,,,,,,,,,,,,,,,,,,,,,,,,,,,,,,,,,,,,,,,,,,,,,,,,,,,,1567.2917467568104,None,1567.7924474019046,None,1567.7924474019046,None,left,1,2.653992618610573,1567.7924474019046,None,,,,,,,,,,,,,1570.4628504147586,None,,,,,,,,,,,,,,,,,,,,,,,,,,,,,,,,,1562.3015458453465,None,1562.3015458453465,None,1562.8015947573986,None,1566.8023571439344,1566.8023571439344,0.009870035065432603,None,1566.8023571439344,1566.8023571439344,1571.9632650285894,None,1571.9632650285894,None,None,0.007898157731688116,None,,NENA_006,001,2020_Sep_10_1330,test7,3.2.4,100.03436249695994,
180,37,Tavlan som för en liten stund sedan auktionerades ut till en beslutsam konstkännare var otroligt vackert men kostade en förmögenhet. ,16,,0,,inc,1,no,182,199,,,,,,,,,,,,,0,107,107,107,,,,,,,,,,,,,,,,,,,,,,,,,,,,,,,,,,,,,,,,,,,,,,,,,,,,,,,,,,,,,,,,,,,,,,,,,,,,,,,,,,,,,,,,,,,,,1583.4646676979364,None,1583.965428641166,None,1583.965428641166,None,right,1,0.6408088161006162,1583.965428641166,None,,,,,,,,,,,,,1584.6159387216994,None,,,,,,,,,,,,,,,,,,,,,,,,,,,,,,,,,1571.973290812457,None,1571.973290812457,None,1572.4733560819814,None,1582.9752607653827,1582.9752607653827,0.009871318004115892,None,1582.9752607653827,1582.9752607653827,1586.1157949363042,None,1586.1157949363042,None,None,0.00788757348436775,None,,NENA_006,001,2020_Sep_10_1330,test7,3.2.4,100.03436249695994,
