trig_exp,trig_item,sentence,trig_w1,trig1,trig_w2,trig2,gram,task,paus,trig_1,trig_2,prac_trials.thisRepN,prac_trials.thisTrialN,prac_trials.thisN,prac_trials.thisIndex,trials_2.thisRepN,trials_2.thisTrialN,trials_2.thisN,trials_2.thisIndex,trials.thisRepN,trials.thisTrialN,trials.thisN,trials.thisIndex,exp_trials.thisRepN,exp_trials.thisTrialN,exp_trials.thisN,exp_trials.thisIndex,grating_1.started,grating_1.stopped,text_1.started,text_1.stopped,key_resp_1.keys,key_resp_1.rt,key_resp_1.started,key_resp_1.stopped,grating_2.started,grating_2.stopped,text_2.started,text_2.stopped,key_resp_2.keys,key_resp_2.rt,key_resp_2.started,key_resp_2.stopped,grating_3.started,grating_3.stopped,text_3.started,text_3.stopped,key_resp_3.keys,key_resp_3.rt,key_resp_3.started,key_resp_3.stopped,grating_4.started,grating_4.stopped,text_4.started,text_4.stopped,key_resp_4.keys,key_resp_4.rt,key_resp_4.started,key_resp_4.stopped,grating_5.started,grating_5.stopped,text_5.started,text_5.stopped,key_resp_5.keys,key_resp_5.rt,key_resp_5.started,key_resp_5.stopped,grating_6.started,grating_6.stopped,text_6.started,text_6.stopped,key_resp_6.keys,key_resp_6.rt,key_resp_6.started,key_resp_6.stopped,grating_7.started,grating_7.stopped,text_7.started,text_7.stopped,key_resp_7.keys,key_resp_7.rt,key_resp_7.started,key_resp_7.stopped,grating_8.started,grating_8.stopped,text_8.started,text_8.stopped,key_resp_8.keys,key_resp_8.rt,key_resp_8.started,key_resp_8.stopped,grating_9.started,grating_9.stopped,text_9.started,text_9.stopped,key_resp_9.keys,key_resp_9.rt,key_resp_9.started,key_resp_9.stopped,grating.started,grating.stopped,text.started,text.stopped,key_resp.keys,key_resp.rt,key_resp.started,key_resp.stopped,grating_14.started,grating_14.stopped,text_fix_4.started,text_fix_4.stopped,grating_16.started,grating_16.stopped,grating_40.started,grating_40.stopped,ISI_4.started,ISI_4.stopped,text_19.started,text_19.stopped,grating_24.started,grating_24.stopped,grating_35.started,grating_35.stopped,prompt.started,prompt.stopped,Button_Press.keys,Button_Press.corr,Button_Press.rt,Button_Press.started,Button_Press.stopped,grating_33.started,grating_33.stopped,grating_34.started,grating_34.stopped,Correct_Incorrect.started,Correct_Incorrect.stopped,Continue_text.started,Continue_text.stopped,Press_Bar.keys,Press_Bar.rt,Press_Bar.started,Press_Bar.stopped,grating_26.started,grating_26.stopped,grating_27.started,grating_27.stopped,text_10.started,text_10.stopped,key_resp_11.keys,key_resp_11.rt,key_resp_11.started,key_resp_11.stopped,grating_28.started,grating_28.stopped,text_11.started,text_11.stopped,key_resp_12.keys,key_resp_12.rt,key_resp_12.started,key_resp_12.stopped,grating_29.started,grating_29.stopped,text_12.started,text_12.stopped,key_resp_13.keys,key_resp_13.rt,key_resp_13.started,key_resp_13.stopped,grating_36.started,grating_36.stopped,text_14.started,text_14.stopped,key_resp_14.keys,key_resp_14.rt,key_resp_14.started,key_resp_14.stopped,grating_10.started,grating_10.stopped,text_fix.started,text_fix.stopped,grating_11.started,grating_11.stopped,grating_37.started,grating_37.stopped,ISI_2.started,ISI_2.stopped,text_15.started,text_15.stopped,grating_38.started,grating_38.stopped,text_fix_3.started,text_fix_3.stopped,key_resp_16.keys,key_resp_16.started,key_resp_16.stopped,key_resp_16.rt,participant,session,date,expName,psychopyVersion,frameRate,
,,,,,,,,,,,,,,,,,,,,,,,,,,,,10.706362046082631,None,10.706362046082631,None,space,104.58580628275922,10.706362046082631,None,,,,,,,,,,,,,,,,,,,,,,,,,,,,,,,,,,,,,,,,,,,,,,,,,,,,,,,,,,,,,,,,,,,,,,,,,,,,,,,,,,,,,,,,,,,,,,,,,,,,,,,,,,,,,,,,,,,,,,,,,,,,,,,,,,,,,,,,,,,,,,,,,,,,,,,,,,,,,,,,,,NENA_035,001,2021_Mar_05_1124,test7,3.2.4,100.64698362692121,
,,,,,,,,,,,,,,,,,,,,,,,,,,,,,,,,,,,,115.30683314719772,None,115.30683314719772,None,space,16.840949810154598,115.30683314719772,None,,,,,,,,,,,,,,,,,,,,,,,,,,,,,,,,,,,,,,,,,,,,,,,,,,,,,,,,,,,,,,,,,,,,,,,,,,,,,,,,,,,,,,,,,,,,,,,,,,,,,,,,,,,,,,,,,,,,,,,,,,,,,,,,,,,,,,,,,,,,,,,,,,,,,,,,,,NENA_035,001,2021_Mar_05_1124,test7,3.2.4,100.64698362692121,
,,,,,,,,,,,,,,,,,,,,,,,,,,,,,,,,,,,,,,,,,,,,132.16014679572345,None,132.16014679572345,None,space,9.643600844440698,132.16014679572345,None,,,,,,,,,,,,,,,,,,,,,,,,,,,,,,,,,,,,,,,,,,,,,,,,,,,,,,,,,,,,,,,,,,,,,,,,,,,,,,,,,,,,,,,,,,,,,,,,,,,,,,,,,,,,,,,,,,,,,,,,,,,,,,,,,,,,,,,,,,,,,,,,,,NENA_035,001,2021_Mar_05_1124,test7,3.2.4,100.64698362692121,
,,,,,,,,,,,,,,,,,,,,,,,,,,,,,,,,,,,,,,,,,,,,,,,,,,,,141.8220477118175,None,141.8220477118175,None,space,5.925601754056515,141.8220477118175,None,,,,,,,,,,,,,,,,,,,,,,,,,,,,,,,,,,,,,,,,,,,,,,,,,,,,,,,,,,,,,,,,,,,,,,,,,,,,,,,,,,,,,,,,,,,,,,,,,,,,,,,,,,,,,,,,,,,,,,,,,,,,,,,,,,,,,,,,,,NENA_035,001,2021_Mar_05_1124,test7,3.2.4,100.64698362692121,
,,,,,,,,,,,,,,,,,,,,,,,,,,,,,,,,,,,,,,,,,,,,,,,,,,,,,,,,,,,,147.7628569742401,None,147.7628569742401,None,space,12.776887371295288,147.7628569742401,None,,,,,,,,,,,,,,,,,,,,,,,,,,,,,,,,,,,,,,,,,,,,,,,,,,,,,,,,,,,,,,,,,,,,,,,,,,,,,,,,,,,,,,,,,,,,,,,,,,,,,,,,,,,,,,,,,,,,,,,,,,,,,,,,,,NENA_035,001,2021_Mar_05_1124,test7,3.2.4,100.64698362692121,
,,,,,,,,,,,,,,,,,,,,,,,,,,,,,,,,,,,,,,,,,,,,,,,,,,,,,,,,,,,,,,,,,,,,160.55561514169267,None,160.55561514169267,None,space,30.975856388571174,160.55561514169267,None,,,,,,,,,,,,,,,,,,,,,,,,,,,,,,,,,,,,,,,,,,,,,,,,,,,,,,,,,,,,,,,,,,,,,,,,,,,,,,,,,,,,,,,,,,,,,,,,,,,,,,,,,,,,,,,,,,,,,,,,,,NENA_035,001,2021_Mar_05_1124,test7,3.2.4,100.64698362692121,
,,,,,,,,,,,,,,,,,,,,,,,,,,,,,,,,,,,,,,,,,,,,,,,,,,,,,,,,,,,,,,,,,,,,,,,,,,,,191.54128838200768,None,191.54128838200768,None,space,2.3740673718216385,191.54128838200768,None,,,,,,,,,,,,,,,,,,,,,,,,,,,,,,,,,,,,,,,,,,,,,,,,,,,,,,,,,,,,,,,,,,,,,,,,,,,,,,,,,,,,,,,,,,,,,,,,,,,,,,,,,,,,,,,,,,NENA_035,001,2021_Mar_05_1124,test7,3.2.4,100.64698362692121,
,,,,,,,,,,,,,,,,,,,,,,,,,,,,,,,,,,,,,,,,,,,,,,,,,,,,,,,,,,,,,,,,,,,,,,,,,,,,,,,,,,,,193.93205213159763,None,193.93205213159763,None,space,3.0232413732492205,193.93205213159763,None,,,,,,,,,,,,,,,,,,,,,,,,,,,,,,,,,,,,,,,,,,,,,,,,,,,,,,,,,,,,,,,,,,,,,,,,,,,,,,,,,,,,,,,,,,,,,,,,,,,,,,,,,,NENA_035,001,2021_Mar_05_1124,test7,3.2.4,100.64698362692121,
,,,,,,,,,,,,,,,,,,,,,,,,,,,,,,,,,,,,,,,,,,,,,,,,,,,,,,,,,,,,,,,,,,,,,,,,,,,,,,,,,,,,,,,,,,,,196.97260505959002,None,196.97260505959002,None,space,1.214912621134772,196.97260505959002,None,,,,,,,,,,,,,,,,,,,,,,,,,,,,,,,,,,,,,,,,,,,,,,,,,,,,,,,,,,,,,,,,,,,,,,,,,,,,,,,,,,,,,,,,,,,,,,,,,,NENA_035,001,2021_Mar_05_1124,test7,3.2.4,100.64698362692121,
,,,,,,,,,,,,,,,,,,,,,,,,,,,,,,,,,,,,,,,,,,,,,,,,,,,,,,,,,,,,,,,,,,,,,,,,,,,,,,,,,,,,,,,,,,,,,,,,,,,,198.20285540903478,None,198.20285540903478,None,space,2.8085013095765134,198.20285540903478,None,,,,,,,,,,,,,,,,,,,,,,,,,,,,,,,,,,,,,,,,,,,,,,,,,,,,,,,,,,,,,,,,,,,,,,,,,,,,,,,,,,,,,,,,,,NENA_035,001,2021_Mar_05_1124,test7,3.2.4,100.64698362692121,
199,1,Meningarna presenteras ord för ord.,99,99,99,99,cor,1,no,,,0,0,0,0,0,0,0,0,0,0,0,0,,,,,,,,,,,,,,,,,,,,,,,,,,,,,,,,,,,,,,,,,,,,,,,,,,,,,,,,,,,,,,,,,,,,,,,,,,,,,,,,,,,,,201.07274130942233,None,201.07274130942233,None,201.5335220132647,None,204.5440961292602,204.5440961292602,0.009949765892997675,None,204.5440961292602,204.5440961292602,205.03351078740752,None,205.54429242139167,None,205.54429242139167,None,left,1,13.482907830580643,205.54429242139167,None,219.03714988956972,None,219.36658132876937,None,219.36658132876937,None,219.36658132876937,None,space,2.364590182442953,219.36658132876937,None,,,,,,,,,,,,,,,,,,,,,,,,,,,,,,,,,,,,,,,,,,,,,,,,,,,,,,,NENA_035,001,2021_Mar_05_1124,test7,3.2.4,100.64698362692121,
199,1,Meningarna presenteras ord för ord.,99,99,99,99,cor,1,no,,,0,0,0,0,0,0,0,0,,,,,,,,,,,,,,,,,,,,,,,,,,,,,,,,,,,,,,,,,,,,,,,,,,,,,,,,,,,,,,,,,,,,,,,,,,,,,,,,,,,,,,,,,,,,,,,,,,,,,,,,,,,,,,,,,,,,,,,,,,,,,,,,,,,,,,,,,,,,,,,,,,,,,,,,,,,,,,,,,,,,,,,,,,,,,,,,,,NENA_035,001,2021_Mar_05_1124,test7,3.2.4,100.64698362692121,
199,1,Meningarna presenteras ord för ord.,99,99,99,99,cor,1,no,,,0,0,0,0,,,,,,,,,,,,,,,,,,,,,,,,,,,,,,,,,,,,,,,,,,,,,,,,,,,,,,,,,,,,,,,,,,,,,,,,,,,,,,,,,,,,,,,,,,,,,,,,,,,,,,,,,,,,,,,,,,,,,,,,,,,,,,,,221.74702979855692,None,,,,,,,,,,,,,,,,,,,,,,,,,,,,,,,,,,,,,,,,,,,,,,,,,,,,,NENA_035,001,2021_Mar_05_1124,test7,3.2.4,100.64698362692121,
199,2,Läs meningen noggrant och ange ditt svar när du ser frågetecknet.,99,99,99,99,cor,1,no,,,0,1,1,1,0,0,0,0,0,0,0,0,,,,,,,,,,,,,,,,,,,,,,,,,,,,,,,,,,,,,,,,,,,,,,,,,,,,,,,,,,,,,,,,,,,,,,,,,,,,,,,,,,,,,223.247700784078,None,223.247700784078,None,223.7477569133639,None,229.74895679712836,229.74895679712836,0.009955859929505095,None,229.74895679712836,229.74895679712836,230.23834258878514,None,230.73913192691498,None,230.73913192691498,None,left,1,0.8560809826922195,230.73913192691498,None,231.60970773641156,None,231.90979446417714,None,231.90979446417714,None,231.90979446417714,None,space,1.7255204147022596,231.90979446417714,None,,,,,,,,,,,,,,,,,,,,,,,,,,,,,,,,,,,,,,,,,,,,,,,,,,,,,,,NENA_035,001,2021_Mar_05_1124,test7,3.2.4,100.64698362692121,
199,2,Läs meningen noggrant och ange ditt svar när du ser frågetecknet.,99,99,99,99,cor,1,no,,,0,1,1,1,0,0,0,0,,,,,,,,,,,,,,,,,,,,,,,,,,,,,,,,,,,,,,,,,,,,,,,,,,,,,,,,,,,,,,,,,,,,,,,,,,,,,,,,,,,,,,,,,,,,,,,,,,,,,,,,,,,,,,,,,,,,,,,,,,,,,,,,,,,,,,,,,,,,,,,,,,,,,,,,,,,,,,,,,,,,,,,,,,,,,,,,,,NENA_035,001,2021_Mar_05_1124,test7,3.2.4,100.64698362692121,
199,2,Läs meningen noggrant och ange ditt svar när du ser frågetecknet.,99,99,99,99,cor,1,no,,,0,1,1,1,,,,,,,,,,,,,,,,,,,,,,,,,,,,,,,,,,,,,,,,,,,,,,,,,,,,,,,,,,,,,,,,,,,,,,,,,,,,,,,,,,,,,,,,,,,,,,,,,,,,,,,,,,,,,,,,,,,,,,,,,,,,,,,,233.65970577990538,None,,,,,,,,,,,,,,,,,,,,,,,,,,,,,,,,,,,,,,,,,,,,,,,,,,,,,NENA_035,001,2021_Mar_05_1124,test7,3.2.4,100.64698362692121,
199,3,I den här meningen finns det en misstag.,99,99,99,99,inc,1,no,,,0,2,2,2,0,0,0,0,0,0,0,0,,,,,,,,,,,,,,,,,,,,,,,,,,,,,,,,,,,,,,,,,,,,,,,,,,,,,,,,,,,,,,,,,,,,,,,,,,,,,,,,,,,,,235.15999252037182,None,235.15999252037182,None,235.66002106612268,None,240.16094735971046,240.16094735971046,0.009957784362541133,None,240.16094735971046,240.16094735971046,240.65035848973093,None,241.1511160747218,None,241.1511160747218,None,right,1,0.07603529666084796,241.1511160747218,None,241.24217734160175,None,241.54128838200768,None,241.54128838200768,None,241.54128838200768,None,space,1.2778348336423733,241.54128838200768,None,,,,,,,,,,,,,,,,,,,,,,,,,,,,,,,,,,,,,,,,,,,,,,,,,,,,,,,NENA_035,001,2021_Mar_05_1124,test7,3.2.4,100.64698362692121,
199,3,I den här meningen finns det en misstag.,99,99,99,99,inc,1,no,,,0,2,2,2,0,0,0,0,,,,,,,,,,,,,,,,,,,,,,,,,,,,,,,,,,,,,,,,,,,,,,,,,,,,,,,,,,,,,,,,,,,,,,,,,,,,,,,,,,,,,,,,,,,,,,,,,,,,,,,,,,,,,,,,,,,,,,,,,,,,,,,,,,,,,,,,,,,,,,,,,,,,,,,,,,,,,,,,,,,,,,,,,,,,,,,,,,NENA_035,001,2021_Mar_05_1124,test7,3.2.4,100.64698362692121,
199,3,I den här meningen finns det en misstag.,99,99,99,99,inc,1,no,,,0,2,2,2,,,,,,,,,,,,,,,,,,,,,,,,,,,,,,,,,,,,,,,,,,,,,,,,,,,,,,,,,,,,,,,,,,,,,,,,,,,,,,,,,,,,,,,,,,,,,,,,,,,,,,,,,,,,,,,,,,,,,,,,,,,,,,,,242.84141616433635,None,,,,,,,,,,,,,,,,,,,,,,,,,,,,,,,,,,,,,,,,,,,,,,,,,,,,,NENA_035,001,2021_Mar_05_1124,test7,3.2.4,100.64698362692121,
199,4,I det här meningen finns det ett till misstag.,99,99,99,99,inc,1,no,,,0,3,3,3,0,0,0,0,0,0,0,0,,,,,,,,,,,,,,,,,,,,,,,,,,,,,,,,,,,,,,,,,,,,,,,,,,,,,,,,,,,,,,,,,,,,,,,,,,,,,,,,,,,,,244.34174395936634,None,244.34174395936634,None,244.8418039375174,None,249.84278379448097,249.84278379448097,0.009958746578831779,None,249.84278379448097,249.84278379448097,250.3322032637093,None,250.83298297967622,None,250.83298297967622,None,right,1,0.44203320159522264,250.83298297967622,None,251.29328289609157,None,251.59314093710873,None,251.59314093710873,None,251.59314093710873,None,space,0.9299484059606584,251.59314093710873,None,,,,,,,,,,,,,,,,,,,,,,,,,,,,,,,,,,,,,,,,,,,,,,,,,,,,,,,NENA_035,001,2021_Mar_05_1124,test7,3.2.4,100.64698362692121,
199,4,I det här meningen finns det ett till misstag.,99,99,99,99,inc,1,no,,,0,3,3,3,0,0,0,0,,,,,,,,,,,,,,,,,,,,,,,,,,,,,,,,,,,,,,,,,,,,,,,,,,,,,,,,,,,,,,,,,,,,,,,,,,,,,,,,,,,,,,,,,,,,,,,,,,,,,,,,,,,,,,,,,,,,,,,,,,,,,,,,,,,,,,,,,,,,,,,,,,,,,,,,,,,,,,,,,,,,,,,,,,,,,,,,,,NENA_035,001,2021_Mar_05_1124,test7,3.2.4,100.64698362692121,
199,4,I det här meningen finns det ett till misstag.,99,99,99,99,inc,1,no,,,0,3,3,3,,,,,,,,,,,,,,,,,,,,,,,,,,,,,,,,,,,,,,,,,,,,,,,,,,,,,,,,,,,,,,,,,,,,,,,,,,,,,,,,,,,,,,,,,,,,,,,,,,,,,,,,,,,,,,,,,,,,,,,,,,,,,,,,252.54333501614292,None,,,,,,,,,,,,,,,,,,,,,,,,,,,,,,,,,,,,,,,,,,,,,,,,,,,,,NENA_035,001,2021_Mar_05_1124,test7,3.2.4,100.64698362692121,
199,5,Ibland kan meningarna låta lite märkliga men ändå vara grammatiskt korrekta.,99,99,99,99,cor,1,no,,,0,4,4,4,0,0,0,0,0,0,0,0,,,,,,,,,,,,,,,,,,,,,,,,,,,,,,,,,,,,,,,,,,,,,,,,,,,,,,,,,,,,,,,,,,,,,,,,,,,,,,,,,,,,,254.04362271882565,None,254.04362271882565,None,254.54370065834837,None,260.5448636571532,260.5448636571532,0.009952011064342514,None,260.5448636571532,260.5448636571532,261.0342388644308,None,261.5350538616626,None,261.5350538616626,None,left,1,0.7079442504686995,261.5350538616626,None,262.2651637275235,None,262.56493837645894,None,262.56493837645894,None,262.56493837645894,None,space,1.1660782179237685,262.56493837645894,None,,,,,,,,,,,,,,,,,,,,,,,,,,,,,,,,,,,,,,,,,,,,,,,,,,,,,,,NENA_035,001,2021_Mar_05_1124,test7,3.2.4,100.64698362692121,
199,5,Ibland kan meningarna låta lite märkliga men ändå vara grammatiskt korrekta.,99,99,99,99,cor,1,no,,,0,4,4,4,0,0,0,0,,,,,,,,,,,,,,,,,,,,,,,,,,,,,,,,,,,,,,,,,,,,,,,,,,,,,,,,,,,,,,,,,,,,,,,,,,,,,,,,,,,,,,,,,,,,,,,,,,,,,,,,,,,,,,,,,,,,,,,,,,,,,,,,,,,,,,,,,,,,,,,,,,,,,,,,,,,,,,,,,,,,,,,,,,,,,,,,,,NENA_035,001,2021_Mar_05_1124,test7,3.2.4,100.64698362692121,
199,5,Ibland kan meningarna låta lite märkliga men ändå vara grammatiskt korrekta.,99,99,99,99,cor,1,no,,,0,4,4,4,,,,,,,,,,,,,,,,,,,,,,,,,,,,,,,,,,,,,,,,,,,,,,,,,,,,,,,,,,,,,,,,,,,,,,,,,,,,,,,,,,,,,,,,,,,,,,,,,,,,,,,,,,,,,,,,,,,,,,,,,,,,,,,,263.7554523988374,None,,,,,,,,,,,,,,,,,,,,,,,,,,,,,,,,,,,,,,,,,,,,,,,,,,,,,NENA_035,001,2021_Mar_05_1124,test7,3.2.4,100.64698362692121,
199,6,De gröna idéerna missade bussen i morse.,99,99,99,99,cor,1,no,,,0,5,5,5,0,0,0,0,0,0,0,0,,,,,,,,,,,,,,,,,,,,,,,,,,,,,,,,,,,,,,,,,,,,,,,,,,,,,,,,,,,,,,,,,,,,,,,,,,,,,,,,,,,,,265.255763194712,None,265.255763194712,None,265.7558629444716,None,269.7566352834465,269.7566352834465,0.00996035027264952,None,269.7566352834465,269.7566352834465,270.2460409609075,None,270.7468136206212,None,270.7468136206212,None,left,1,2.616087872161188,270.7468136206212,None,273.3770072634502,None,273.67776658043067,None,273.67776658043067,None,273.67776658043067,None,space,1.2052340078039379,273.67776658043067,None,,,,,,,,,,,,,,,,,,,,,,,,,,,,,,,,,,,,,,,,,,,,,,,,,,,,,,,NENA_035,001,2021_Mar_05_1124,test7,3.2.4,100.64698362692121,
199,6,De gröna idéerna missade bussen i morse.,99,99,99,99,cor,1,no,,,0,5,5,5,0,0,0,0,,,,,,,,,,,,,,,,,,,,,,,,,,,,,,,,,,,,,,,,,,,,,,,,,,,,,,,,,,,,,,,,,,,,,,,,,,,,,,,,,,,,,,,,,,,,,,,,,,,,,,,,,,,,,,,,,,,,,,,,,,,,,,,,,,,,,,,,,,,,,,,,,,,,,,,,,,,,,,,,,,,,,,,,,,,,,,,,,,NENA_035,001,2021_Mar_05_1124,test7,3.2.4,100.64698362692121,
199,6,De gröna idéerna missade bussen i morse.,99,99,99,99,cor,1,no,,,0,5,5,5,,,,,,,,,,,,,,,,,,,,,,,,,,,,,,,,,,,,,,,,,,,,,,,,,,,,,,,,,,,,,,,,,,,,,,,,,,,,,,,,,,,,,,,,,,,,,,,,,,,,,,,,,,,,,,,,,,,,,,,,,,,,,,,,274.90758008366174,None,,,,,,,,,,,,,,,,,,,,,,,,,,,,,,,,,,,,,,,,,,,,,,,,,,,,,NENA_035,001,2021_Mar_05_1124,test7,3.2.4,100.64698362692121,
199,7,Det bruna bordet är mer än hundra år gamla.,99,99,99,99,inc,1,no,,,0,6,6,6,0,0,0,0,0,0,0,0,,,,,,,,,,,,,,,,,,,,,,,,,,,,,,,,,,,,,,,,,,,,,,,,,,,,,,,,,,,,,,,,,,,,,,,,,,,,,,,,,,,,,276.4078889551038,None,276.4078889551038,None,276.9079832523039,None,281.90897690103475,281.90897690103475,0.009955539190741547,None,281.90897690103475,281.90897690103475,282.39838418219006,None,282.89916004929137,None,282.89916004929137,None,right,1,0.8956983156726892,282.89916004929137,None,283.8090202649173,None,284.10907010772326,None,284.10907010772326,None,284.10907010772326,None,space,1.037765387282434,284.10907010772326,None,,,,,,,,,,,,,,,,,,,,,,,,,,,,,,,,,,,,,,,,,,,,,,,,,,,,,,,NENA_035,001,2021_Mar_05_1124,test7,3.2.4,100.64698362692121,
199,7,Det bruna bordet är mer än hundra år gamla.,99,99,99,99,inc,1,no,,,0,6,6,6,0,0,0,0,,,,,,,,,,,,,,,,,,,,,,,,,,,,,,,,,,,,,,,,,,,,,,,,,,,,,,,,,,,,,,,,,,,,,,,,,,,,,,,,,,,,,,,,,,,,,,,,,,,,,,,,,,,,,,,,,,,,,,,,,,,,,,,,,,,,,,,,,,,,,,,,,,,,,,,,,,,,,,,,,,,,,,,,,,,,,,,,,,NENA_035,001,2021_Mar_05_1124,test7,3.2.4,100.64698362692121,
199,7,Det bruna bordet är mer än hundra år gamla.,99,99,99,99,inc,1,no,,,0,6,6,6,,,,,,,,,,,,,,,,,,,,,,,,,,,,,,,,,,,,,,,,,,,,,,,,,,,,,,,,,,,,,,,,,,,,,,,,,,,,,,,,,,,,,,,,,,,,,,,,,,,,,,,,,,,,,,,,,,,,,,,,,,,,,,,,285.1601471164622,None,,,,,,,,,,,,,,,,,,,,,,,,,,,,,,,,,,,,,,,,,,,,,,,,,,,,,NENA_035,001,2021_Mar_05_1124,test7,3.2.4,100.64698362692121,
199,8,På våren gilla alla att tillbringa tid i solen.,99,99,99,99,inc,1,no,,,0,7,7,7,0,0,0,0,0,0,0,0,,,,,,,,,,,,,,,,,,,,,,,,,,,,,,,,,,,,,,,,,,,,,,,,,,,,,,,,,,,,,,,,,,,,,,,,,,,,,,,,,,,,,286.6598876387916,None,286.6598876387916,None,287.1599434473387,None,292.1608816082612,292.1608816082612,0.009961312489394913,None,292.1608816082612,292.1608816082612,292.6503366794941,None,293.15113884717493,None,293.15113884717493,None,right,1,0.9316374163590808,293.15113884717493,None,294.1010400917057,None,294.4013692979861,None,294.4013692979861,None,294.4013692979861,None,space,0.9293415681945589,294.4013692979861,None,,,,,,,,,,,,,,,,,,,,,,,,,,,,,,,,,,,,,,,,,,,,,,,,,,,,,,,NENA_035,001,2021_Mar_05_1124,test7,3.2.4,100.64698362692121,
199,8,På våren gilla alla att tillbringa tid i solen.,99,99,99,99,inc,1,no,,,0,7,7,7,0,0,0,0,,,,,,,,,,,,,,,,,,,,,,,,,,,,,,,,,,,,,,,,,,,,,,,,,,,,,,,,,,,,,,,,,,,,,,,,,,,,,,,,,,,,,,,,,,,,,,,,,,,,,,,,,,,,,,,,,,,,,,,,,,,,,,,,,,,,,,,,,,,,,,,,,,,,,,,,,,,,,,,,,,,,,,,,,,,,,,,,,,NENA_035,001,2021_Mar_05_1124,test7,3.2.4,100.64698362692121,
199,8,På våren gilla alla att tillbringa tid i solen.,99,99,99,99,inc,1,no,,,0,7,7,7,,,,,,,,,,,,,,,,,,,,,,,,,,,,,,,,,,,,,,,,,,,,,,,,,,,,,,,,,,,,,,,,,,,,,,,,,,,,,,,,,,,,,,,,,,,,,,,,,,,,,,,,,,,,,,,,,,,,,,,,,,,,,,,,295.3515078892119,None,,,,,,,,,,,,,,,,,,,,,,,,,,,,,,,,,,,,,,,,,,,,,,,,,,,,,NENA_035,001,2021_Mar_05_1124,test7,3.2.4,100.64698362692121,
199,9,Tidningen avskedade dem journalist som publicerade falska fakta.,99,99,99,99,inc,1,no,,,0,8,8,8,0,0,0,0,0,0,0,0,,,,,,,,,,,,,,,,,,,,,,,,,,,,,,,,,,,,,,,,,,,,,,,,,,,,,,,,,,,,,,,,,,,,,,,,,,,,,,,,,,,,,296.8519659041849,None,296.8519659041849,None,297.35190752972767,None,301.85282965371107,301.85282965371107,0.009957784362541133,None,301.85282965371107,301.85282965371107,302.34218625813946,None,302.84299740650613,None,302.84299740650613,None,right,1,1.015925001010146,302.84299740650613,None,303.8831420340357,None,304.18292373922395,None,304.18292373922395,None,304.18292373922395,None,space,2.2597384311125097,304.18292373922395,None,,,,,,,,,,,,,,,,,,,,,,,,,,,,,,,,,,,,,,,,,,,,,,,,,,,,,,,NENA_035,001,2021_Mar_05_1124,test7,3.2.4,100.64698362692121,
199,9,Tidningen avskedade dem journalist som publicerade falska fakta.,99,99,99,99,inc,1,no,,,0,8,8,8,0,0,0,0,,,,,,,,,,,,,,,,,,,,,,,,,,,,,,,,,,,,,,,,,,,,,,,,,,,,,,,,,,,,,,,,,,,,,,,,,,,,,,,,,,,,,,,,,,,,,,,,,,,,,,,,,,,,,,,,,,,,,,,,,,,,,,,,,,,,,,,,,,,,,,,,,,,,,,,,,,,,,,,,,,,,,,,,,,,,,,,,,,NENA_035,001,2021_Mar_05_1124,test7,3.2.4,100.64698362692121,
199,9,Tidningen avskedade dem journalist som publicerade falska fakta.,99,99,99,99,inc,1,no,,,0,8,8,8,,,,,,,,,,,,,,,,,,,,,,,,,,,,,,,,,,,,,,,,,,,,,,,,,,,,,,,,,,,,,,,,,,,,,,,,,,,,,,,,,,,,,,,,,,,,,,,,,,,,,,,,,,,,,,,,,,,,,,,,,,,,,,,,306.463669918744,None,,,,,,,,,,,,,,,,,,,,,,,,,,,,,,,,,,,,,,,,,,,,,,,,,,,,,NENA_035,001,2021_Mar_05_1124,test7,3.2.4,100.64698362692121,
199,10,Bra jobbat!,99,99,99,99,cor,1,no,,,0,9,9,9,0,0,0,0,0,0,0,0,,,,,,,,,,,,,,,,,,,,,,,,,,,,,,,,,,,,,,,,,,,,,,,,,,,,,,,,,,,,,,,,,,,,,,,,,,,,,,,,,,,,,307.96397333762707,None,307.96397333762707,None,308.46405769192506,None,309.9643601485918,309.9643601485918,0.009956180668268644,None,309.9643601485918,309.9643601485918,310.45374305359974,None,310.9545525982726,None,310.9545525982726,None,left,1,1.288166471123077,310.9545525982726,None,312.2557452333408,None,312.55487231068537,None,312.55487231068537,None,312.55487231068537,None,space,0.9359282597160927,312.55487231068537,None,,,,,,,,,,,,,,,,,,,,,,,,,,,,,,,,,,,,,,,,,,,,,,,,,,,,,,,NENA_035,001,2021_Mar_05_1124,test7,3.2.4,100.64698362692121,
199,10,Bra jobbat!,99,99,99,99,cor,1,no,,,0,9,9,9,0,0,0,0,,,,,,,,,,,,,,,,,,,,,,,,,,,,,,,,,,,,,,,,,,,,,,,,,,,,,,,,,,,,,,,,,,,,,,,,,,,,,,,,,,,,,,,,,,,,,,,,,,,,,,,,,,,,,,,,,,,,,,,,,,,,,,,,,,,,,,,,,,,,,,,,,,,,,,,,,,,,,,,,,,,,,,,,,,,,,,,,,,NENA_035,001,2021_Mar_05_1124,test7,3.2.4,100.64698362692121,
199,10,Bra jobbat!,99,99,99,99,cor,1,no,,,0,9,9,9,,,,,,,,,,,,,,,,,,,,,,,,,,,,,,,,,,,,,,,,,,,,,,,,,,,,,,,,,,,,,,,,,,,,,,,,,,,,,,,,,,,,,,,,,,,,,,,,,,,,,,,,,,,,,,,,,,,,,,,,,,,,,,,,313.5149711238878,None,,,,,,,,,,,,,,,,,,,,,,,,,,,,,,,,,,,,,,,,,,,,,,,,,,,,,NENA_035,001,2021_Mar_05_1124,test7,3.2.4,100.64698362692121,
,,,,,,,,,,,,,,,,,,,,,,,,,,,,,,,,,,,,,,,,,,,,,,,,,,,,,,,,,,,,,,,,,,,,,,,,,,,,,,,,,,,,,,,,,,,,,,,,,,,,,,,,,,,,,,,,,,,,,,,,,,,,,,,,,,,,,,,,,,,,,,,,,315.01533067205673,None,315.01533067205673,None,space,70.8509780287527,315.01533067205673,None,,,,,,,,,,,,,,,,,,,,,,,,,,,,,,,,,,,,,,,,,,,,,NENA_035,001,2021_Mar_05_1124,test7,3.2.4,100.64698362692121,
,,,,,,,,,,,,,,,,,,,,,,,,,,,,,,,,,,,,,,,,,,,,,,,,,,,,,,,,,,,,,,,,,,,,,,,,,,,,,,,,,,,,,,,,,,,,,,,,,,,,,,,,,,,,,,,,,,,,,,,,,,,,,,,,,,,,,,,,,,,,,,,,,,,,,,,,,385.8789345827604,None,385.8789345827604,None,space,4.491369560992098,385.8789345827604,None,,,,,,,,,,,,,,,,,,,,,,,,,,,,,,,,,,,,,NENA_035,001,2021_Mar_05_1124,test7,3.2.4,100.64698362692121,
,,,,,,,,,,,,,,,,,,,,,,,,,,,,,,,,,,,,,,,,,,,,,,,,,,,,,,,,,,,,,,,,,,,,,,,,,,,,,,,,,,,,,,,,,,,,,,,,,,,,,,,,,,,,,,,,,,,,,,,,,,,,,,,,,,,,,,,,,,,,,,,,,,,,,,,,,,,,,,,,,390.37983136838056,None,390.37983136838056,None,space,1.9903595545833923,390.37983136838056,None,,,,,,,,,,,,,,,,,,,,,,,,,,,,,NENA_035,001,2021_Mar_05_1124,test7,3.2.4,100.64698362692121,
,,,,,,,,,,,,,,,,,,,,,,,,,,,,,,,,,,,,,,,,,,,,,,,,,,,,,,,,,,,,,,,,,,,,,,,,,,,,,,,,,,,,,,,,,,,,,,,,,,,,,,,,,,,,,,,,,,,,,,,,,,,,,,,,,,,,,,,,,,,,,,,,,,,,,,,,,,,,,,,,,,,,,,,,,392.3802027838842,None,392.3802027838842,None,space,1.4700375456814072,392.3802027838842,None,,,,,,,,,,,,,,,,,,,,,NENA_035,001,2021_Mar_05_1124,test7,3.2.4,100.64698362692121,
160,2,Den höga ljudnivån gav allvarliga skador på husgrunden som de flesta boende i de gamla radhusen inte kunde upptäcka direkt.,17,,18,,cor,1,no,161,162,,,,,,,,,,,,,0,0,0,0,,,,,,,,,,,,,,,,,,,,,,,,,,,,,,,,,,,,,,,,,,,,,,,,,,,,,,,,,,,,,,,,,,,,,,,,,,,,,,,,,,,,,,,,,,,,,405.36199668869267,None,405.86246560878453,None,405.86246560878453,None,right,0,0.5476730080999914,405.86246560878453,None,,,,,,,,,,,,,406.43288605241787,None,,,,,,,,,,,,,,,,,,,,,,,,,,,,,,,,,393.949794438518,None,393.949794438518,None,394.3705588103412,None,404.8725406552435,404.8725406552435,0.00991544684393375,None,404.8725406552435,404.8725406552435,407.9332543888289,None,407.9332543888289,None,None,0.007969203945322079,None,,NENA_035,001,2021_Mar_05_1124,test7,3.2.4,100.64698362692121,
150,50,Riksdagen fattar beslut men kommunerna kan inte genomföra dem.  ,6,,7,,cor,1,no,155,156,,,,,,,,,,,,,0,1,1,1,,,,,,,,,,,,,,,,,,,,,,,,,,,,,,,,,,,,,,,,,,,,,,,,,,,,,,,,,,,,,,,,,,,,,,,,,,,,,,,,,,,,,,,,,,,,,413.93367859793534,None,414.434436503665,None,414.434436503665,None,left,1,3.4157804119695356,414.434436503665,None,,,,,,,,,,,,,417.8650706491303,None,,,,,,,,,,,,,,,,,,,,,,,,,,,,,,,,,407.9430861869996,None,407.9430861869996,None,408.4432795924822,None,413.44425046875995,413.44425046875995,0.009930842305038823,None,413.44425046875995,413.44425046875995,419.365404345754,None,419.365404345754,None,None,0.008308866310471785,None,,NENA_035,001,2021_Mar_05_1124,test7,3.2.4,100.64698362692121,
140,39,Astronomer observerar gärna stjärnor med stor spegelteleskop.,3,,4,,inc,1,no,133,134,,,,,,,,,,,,,0,2,2,2,,,,,,,,,,,,,,,,,,,,,,,,,,,,,,,,,,,,,,,,,,,,,,,,,,,,,,,,,,,,,,,,,,,,,,,,,,,,,,,,,,,,,,,,,,,,,424.3656649780837,None,424.86635488719276,None,424.86635488719276,None,right,1,1.447643243541279,424.86635488719276,None,,,,,,,,,,,,,426.3266230504696,None,,,,,,,,,,,,,,,,,,,,,,,,,,,,,,,,,419.3753804763742,None,419.3753804763742,None,419.8754651514114,None,423.876215680149,423.876215680149,0.009930842305038823,None,423.876215680149,423.876215680149,427.82708632555875,None,427.82708632555875,None,None,0.008738335532598285,None,,NENA_035,001,2021_Mar_05_1124,test7,3.2.4,100.64698362692121,
170,88,Kajaken var för smalt för det öppna havet. ,4,,0,,inc,1,no,172,199,,,,,,,,,,,,,0,3,3,3,,,,,,,,,,,,,,,,,,,,,,,,,,,,,,,,,,,,,,,,,,,,,,,,,,,,,,,,,,,,,,,,,,,,,,,,,,,,,,,,,,,,,,,,,,,,,433.3273694096033,None,433.8281581062556,None,433.8281581062556,None,right,1,7.189760927730276,433.8281581062556,None,,,,,,,,,,,,,441.0292404713323,None,,,,,,,,,,,,,,,,,,,,,,,,,,,,,,,,,427.8370127416688,None,427.8370127416688,None,428.3371025485262,None,432.8379541099789,432.8379541099789,0.009930842305038823,None,432.8379541099789,432.8379541099789,442.52990324594055,None,442.52990324594055,None,None,0.007648144429822423,None,,NENA_035,001,2021_Mar_05_1124,test7,3.2.4,100.64698362692121,
160,52,Tre promenader i veckan har positiva effekter på hjärnan som många människor med lätt eller medelsvår depression bör inte vara utan.,18,,19,,inc,1,no,163,164,,,,,,,,,,,,,0,4,4,4,,,,,,,,,,,,,,,,,,,,,,,,,,,,,,,,,,,,,,,,,,,,,,,,,,,,,,,,,,,,,,,,,,,,,,,,,,,,,,,,,,,,,,,,,,,,,454.5314417015579,None,455.0322239834345,None,455.0322239834345,None,right,1,1.2895838157778599,455.0322239834345,None,,,,,,,,,,,,,456.3321801705174,None,,,,,,,,,,,,,,,,,,,,,,,,,,,,,,,,,442.5398062481195,None,442.5398062481195,None,443.0399156200424,None,454.04201132721073,454.04201132721073,0.009930842305038823,None,454.04201132721073,454.04201132721073,457.83281600306907,None,457.83281600306907,None,None,0.007791835402713332,None,,NENA_035,001,2021_Mar_05_1124,test7,3.2.4,100.64698362692121,
160,42,Det dåliga vädret innebär en stor förlust som de flesta invånarna i den lilla badorten inte har förutsett.,16,,17,,cor,1,no,161,162,,,,,,,,,,,,,0,5,5,5,,,,,,,,,,,,,,,,,,,,,,,,,,,,,,,,,,,,,,,,,,,,,,,,,,,,,,,,,,,,,,,,,,,,,,,,,,,,,,,,,,,,,,,,,,,,,468.3240937044752,None,468.82487630709056,None,468.82487630709056,None,left,1,1.2327963738557628,468.82487630709056,None,,,,,,,,,,,,,470.07480590492924,None,,,,,,,,,,,,,,,,,,,,,,,,,,,,,,,,,457.842764870893,None,457.842764870893,None,458.3428405652444,None,467.8347242704958,467.8347242704958,0.009928597133693984,None,467.8347242704958,467.8347242704958,471.5754459070844,None,471.5754459070844,None,None,0.0077103677526793035,None,,NENA_035,001,2021_Mar_05_1124,test7,3.2.4,100.64698362692121,
170,81,Guldet är redan vägt och transporteras nu till banken. ,4,,0,,cor,1,no,173,199,,,,,,,,,,,,,0,6,6,6,,,,,,,,,,,,,,,,,,,,,,,,,,,,,,,,,,,,,,,,,,,,,,,,,,,,,,,,,,,,,,,,,,,,,,,,,,,,,,,,,,,,,,,,,,,,,477.5758896812563,None,478.0766661898351,None,478.0766661898351,None,left,1,1.5890046898421133,478.0766661898351,None,,,,,,,,,,,,,479.67692945222325,None,,,,,,,,,,,,,,,,,,,,,,,,,,,,,,,,,471.5854367916886,None,471.5854367916886,None,472.0855599553788,None,477.0864099131377,477.0864099131377,0.00992923861122108,None,477.0864099131377,477.0864099131377,481.17731125966327,None,481.17731125966327,None,None,0.008104876448669529,None,,NENA_035,001,2021_Mar_05_1124,test7,3.2.4,100.64698362692121,
150,65,Poeten skrev verk men allmänheten inte fick se dem.  ,6,,7,,inc,1,no,157,158,,,,,,,,,,,,,0,7,7,7,,,,,,,,,,,,,,,,,,,,,,,,,,,,,,,,,,,,,,,,,,,,,,,,,,,,,,,,,,,,,,,,,,,,,,,,,,,,,,,,,,,,,,,,,,,,,487.17773450655295,None,487.6785142225194,None,487.6785142225194,None,right,1,1.3791876456552927,487.6785142225194,None,,,,,,,,,,,,,489.06867594542564,None,,,,,,,,,,,,,,,,,,,,,,,,,,,,,,,,,481.18725980674844,None,481.18725980674844,None,481.6873213885938,None,486.6883214520999,486.6883214520999,0.009932766737620113,None,486.6883214520999,486.6883214520999,490.56912061766604,None,490.56912061766604,None,None,0.00844485955167329,None,,NENA_035,001,2021_Mar_05_1124,test7,3.2.4,100.64698362692121,
150,16,Forskaren gav en föreläsning som studenterna inte kunde följa.  ,6,,7,,cor,1,no,151,152,,,,,,,,,,,,,0,8,8,8,,,,,,,,,,,,,,,,,,,,,,,,,,,,,,,,,,,,,,,,,,,,,,,,,,,,,,,,,,,,,,,,,,,,,,,,,,,,,,,,,,,,,,,,,,,,,496.56951820545373,None,497.0703226183059,None,497.0703226183059,None,left,1,1.3392380273025992,497.0703226183059,None,,,,,,,,,,,,,498.4203159790136,None,,,,,,,,,,,,,,,,,,,,,,,,,,,,,,,,,490.5790621084984,None,490.5790621084984,None,491.0791608960417,None,496.08013369675155,496.08013369675155,0.009930521566275274,None,496.08013369675155,496.08013369675155,499.9209290391117,None,499.9209290391117,None,None,0.007791193924731488,None,,NENA_035,001,2021_Mar_05_1124,test7,3.2.4,100.64698362692121,
130,69,Smeder hamrar ofta järn som har hög temperatur.,3,,4,,cor,1,no,137,138,,,,,,,,,,,,,0,9,9,9,,,,,,,,,,,,,,,,,,,,,,,,,,,,,,,,,,,,,,,,,,,,,,,,,,,,,,,,,,,,,,,,,,,,,,,,,,,,,,,,,,,,,,,,,,,,,505.42123778225823,None,505.9220139700983,None,505.9220139700983,None,left,1,1.263425964830276,505.9220139700983,None,,,,,,,,,,,,,507.2020962203501,None,,,,,,,,,,,,,,,,,,,,,,,,,,,,,,,,,499.93087502028675,None,499.93087502028675,None,500.43094045099724,None,504.9318151056418,504.9318151056418,0.009928597133693984,None,504.9318151056418,504.9318151056418,508.7026043988684,None,508.7026043988684,None,None,0.007984278668573097,None,,NENA_035,001,2021_Mar_05_1124,test7,3.2.4,100.64698362692121,
150,116,Kanalen visade filmer som familjen hade inte sett.  ,6,,7,,inc,1,no,153,154,,,,,,,,,,,,,0,10,10,10,,,,,,,,,,,,,,,,,,,,,,,,,,,,,,,,,,,,,,,,,,,,,,,,,,,,,,,,,,,,,,,,,,,,,,,,,,,,,,,,,,,,,,,,,,,,,514.2028964635983,None,514.7037095363976,None,514.7037095363976,None,right,1,1.1217402516263064,514.7037095363976,None,,,,,,,,,,,,,515.8436940511297,None,,,,,,,,,,,,,,,,,,,,,,,,,,,,,,,,,508.71255807777425,None,508.71255807777425,None,509.2125978493823,None,513.7135125963741,513.7135125963741,0.00993340821514721,None,513.7135125963741,513.7135125963741,517.3442509819419,None,517.3442509819419,None,None,0.008225794967074762,None,,NENA_035,001,2021_Mar_05_1124,test7,3.2.4,100.64698362692121,
160,57,Den första månlandningen omfattade tre förväntansfulla astronauter som de hårt arbetande kollegorna i kontrollrummet skulle inte släppa ur sikte en sekund.,15,,16,,inc,1,no,163,164,,,,,,,,,,,,,0,11,11,11,,,,,,,,,,,,,,,,,,,,,,,,,,,,,,,,,,,,,,,,,,,,,,,,,,,,,,,,,,,,,,,,,,,,,,,,,,,,,,,,,,,,,,,,,,,,,529.3458375483756,None,529.8466211132072,None,529.8466211132072,None,right,1,1.3067000406053921,529.8466211132072,None,,,,,,,,,,,,,531.1666972437633,None,,,,,,,,,,,,,,,,,,,,,,,,,,,,,,,,,517.3541671344105,None,517.3541671344105,None,517.8543153157257,None,528.8564350783022,528.8564350783022,0.009921861619659467,None,528.8564350783022,528.8564350783022,532.6671861779549,None,532.6671861779549,None,None,0.008402842771829455,None,,NENA_035,001,2021_Mar_05_1124,test7,3.2.4,100.64698362692121,
130,51,Snickare tillverkar ofta möbler från gammalt trä.,3,,4,,cor,1,no,135,136,,,,,,,,,,,,,0,12,12,12,,,,,,,,,,,,,,,,,,,,,,,,,,,,,,,,,,,,,,,,,,,,,,,,,,,,,,,,,,,,,,,,,,,,,,,,,,,,,,,,,,,,,,,,,,,,,537.6674378295993,None,538.1682371106313,None,538.1682371106313,None,left,1,1.353001569695607,538.1682371106313,None,,,,,,,,,,,,,539.5381162755043,None,,,,,,,,,,,,,,,,,,,,,,,,,,,,,,,,,532.6771568560157,None,532.6771568560157,None,533.1772100986527,None,537.1780263788401,537.1780263788401,0.00993148378256592,None,537.1780263788401,537.1780263788401,541.0388229913254,None,541.0388229913254,None,None,0.0075897699725828716,None,,NENA_035,001,2021_Mar_05_1124,test7,3.2.4,100.64698362692121,
180,59,Bankrånet som genomfördes under onsdagen på ett växlingskontor i centrala Norrköping var ganska välplanerad och rånarna lyckades fly. ,14,,0,,inc,1,no,182,199,,,,,,,,,,,,,0,13,13,13,,,,,,,,,,,,,,,,,,,,,,,,,,,,,,,,,,,,,,,,,,,,,,,,,,,,,,,,,,,,,,,,,,,,,,,,,,,,,,,,,,,,,,,,,,,,,551.5400990826229,None,552.0408900244465,None,552.0408900244465,None,right,1,1.3683354491399768,552.0408900244465,None,,,,,,,,,,,,,553.4208804792606,None,,,,,,,,,,,,,,,,,,,,,,,,,,,,,,,,,541.048773783582,None,541.048773783582,None,541.548840497248,None,551.0506767267452,551.0506767267452,0.009932125260093017,None,551.0506767267452,551.0506767267452,554.9214909734486,None,554.9214909734486,None,None,0.00877810714109728,None,,NENA_035,001,2021_Mar_05_1124,test7,3.2.4,100.64698362692121,
160,12,Kyparen på restaurangen öppnade en flaska rött vin som det unga paret vid bordet nära entrédörren ville inte dricka upp.,17,,18,,inc,1,no,163,164,,,,,,,,,,,,,0,14,14,14,,,,,,,,,,,,,,,,,,,,,,,,,,,,,,,,,,,,,,,,,,,,,,,,,,,,,,,,,,,,,,,,,,,,,,,,,,,,,,,,,,,,,,,,,,,,,566.4229575835798,None,566.9237068293623,None,566.9237068293623,None,right,1,1.357439952889763,566.9237068293623,None,,,,,,,,,,,,,568.2937582309587,None,,,,,,,,,,,,,,,,,,,,,,,,,,,,,,,,,554.9314388790563,None,554.9314388790563,None,555.4315161771019,None,565.9335153418979,565.9335153418979,0.009930200827511726,None,565.9335153418979,565.9335153418979,569.7943218972854,None,569.7943218972854,None,None,0.007667388756544824,None,,NENA_035,001,2021_Mar_05_1124,test7,3.2.4,100.64698362692121,
150,83,Sekreteraren skrev brev som brevbäraren inte hade tagit med sig. ,6,,7,,cor,1,no,151,152,,,,,,,,,,,,,0,15,15,15,,,,,,,,,,,,,,,,,,,,,,,,,,,,,,,,,,,,,,,,,,,,,,,,,,,,,,,,,,,,,,,,,,,,,,,,,,,,,,,,,,,,,,,,,,,,,576.284857729901,None,576.7856438606427,None,576.7856438606427,None,left,1,1.647421805490012,576.7856438606427,None,,,,,,,,,,,,,578.4461700903394,None,,,,,,,,,,,,,,,,,,,,,,,,,,,,,,,,,569.8043060463751,None,569.8043060463751,None,570.3043958532326,None,575.7954465998805,575.7954465998805,0.009930200827511726,None,575.7954465998805,575.7954465998805,579.9462840809005,None,579.9462840809005,None,None,0.008127328162572667,None,,NENA_035,001,2021_Mar_05_1124,test7,3.2.4,100.64698362692121,
160,34,Den nya medicinen mildrar de flesta typer av huvudvärk som många andra liknande substanser på marknaden inte kan klara av.,17,,18,,cor,1,no,161,162,,,,,,,,,,,,,0,16,16,16,,,,,,,,,,,,,,,,,,,,,,,,,,,,,,,,,,,,,,,,,,,,,,,,,,,,,,,,,,,,,,,,,,,,,,,,,,,,,,,,,,,,,,,,,,,,,591.447741389607,None,591.9485486891085,None,591.9485486891085,None,left,1,2.1084404975040343,591.9485486891085,None,,,,,,,,,,,,,594.0689851376064,None,,,,,,,,,,,,,,,,,,,,,,,,,,,,,,,,,579.9562396842389,None,579.9562396842389,None,580.4563413584315,None,590.9583648993748,590.9583648993748,0.009928597133693984,None,590.9583648993748,590.9583648993748,595.5692816285322,None,595.5692816285322,None,None,0.008328752114721283,None,,NENA_035,001,2021_Mar_05_1124,test7,3.2.4,100.64698362692121,
130,75,Turister besöker ofta städer som de läst om på bloggar.,3,,4,,cor,1,no,137,138,,,,,,,,,,,,,0,17,17,17,,,,,,,,,,,,,,,,,,,,,,,,,,,,,,,,,,,,,,,,,,,,,,,,,,,,,,,,,,,,,,,,,,,,,,,,,,,,,,,,,,,,,,,,,,,,,602.0697914748916,None,602.5705304570333,None,602.5705304570333,None,left,1,2.8465540788029102,602.5705304570333,None,,,,,,,,,,,,,605.4315219503997,None,,,,,,,,,,,,,,,,,,,,,,,,,,,,,,,,,595.5792391563032,None,595.5792391563032,None,596.0793235106012,None,601.5803694397528,601.5803694397528,0.009929238610766333,None,601.5803694397528,601.5803694397528,606.9314839107809,None,606.9314839107809,None,None,0.007957336611070787,None,,NENA_035,001,2021_Mar_05_1124,test7,3.2.4,100.64698362692121,
170,7,Lagen är väldigt viktig och stöds av många. ,4,,0,,cor,1,no,171,199,,,,,,,,,,,,,0,18,18,18,,,,,,,,,,,,,,,,,,,,,,,,,,,,,,,,,,,,,,,,,,,,,,,,,,,,,,,,,,,,,,,,,,,,,,,,,,,,,,,,,,,,,,,,,,,,,612.431768919258,None,612.9325851994449,None,612.9325851994449,None,left,1,1.9802322277037092,612.9325851994449,None,,,,,,,,,,,,,614.9229893367187,None,,,,,,,,,,,,,,,,,,,,,,,,,,,,,,,,,606.941402308421,None,606.941402308421,None,607.441489870107,None,611.9423863349884,611.9423863349884,0.00993148378256592,None,611.9423863349884,611.9423863349884,616.4232543952438,None,616.4232543952438,None,None,0.008256265151430853,None,,NENA_035,001,2021_Mar_05_1124,test7,3.2.4,100.64698362692121,
170,115,Kycklingen är perfekt tillagat idag.   ,4,,0,,inc,1,no,172,199,,,,,,,,,,,,,0,19,19,19,,,,,,,,,,,,,,,,,,,,,,,,,,,,,,,,,,,,,,,,,,,,,,,,,,,,,,,,,,,,,,,,,,,,,,,,,,,,,,,,,,,,,,,,,,,,,620.4233103962342,None,620.9241180164745,None,620.9241180164745,None,right,1,2.260558560165009,620.9241180164745,None,,,,,,,,,,,,,623.1944016970929,None,,,,,,,,,,,,,,,,,,,,,,,,,,,,,,,,,616.433204866762,None,616.433204866762,None,616.9333536895542,None,619.9339146616753,619.9339146616753,0.009929559349984629,None,619.9339146616753,619.9339146616753,624.6949028193579,None,624.6949028193579,None,None,0.008621907356427982,None,,NENA_035,001,2021_Mar_05_1124,test7,3.2.4,100.64698362692121,
140,49,Modeller röker gärna cigaretter för att bli mindre hungrigt.,3,,4,,inc,1,no,135,136,,,,,,,,,,,,,0,20,20,20,,,,,,,,,,,,,,,,,,,,,,,,,,,,,,,,,,,,,,,,,,,,,,,,,,,,,,,,,,,,,,,,,,,,,,,,,,,,,,,,,,,,,,,,,,,,,630.6952943131091,None,631.1960987259613,None,631.1960987259613,None,right,1,1.8605232147519928,631.1960987259613,None,,,,,,,,,,,,,633.0661693718844,None,,,,,,,,,,,,,,,,,,,,,,,,,,,,,,,,,624.7048491212718,None,624.7048491212718,None,625.2048994772599,None,630.2058620143293,630.2058620143293,0.009933087476383662,None,630.2058620143293,630.2058620143293,634.5667975067053,None,634.5667975067053,None,None,0.007875227484419156,None,,NENA_035,001,2021_Mar_05_1124,test7,3.2.4,100.64698362692121,
150,40,Nätet sprider information som tidningar inte kan kontrollera.  ,6,,7,,cor,1,no,151,152,,,,,,,,,,,,,0,21,21,21,,,,,,,,,,,,,,,,,,,,,,,,,,,,,,,,,,,,,,,,,,,,,,,,,,,,,,,,,,,,,,,,,,,,,,,,,,,,,,,,,,,,,,,,,,,,,640.0671126646271,None,640.567899116108,None,640.567899116108,None,left,1,2.424720043158686,640.567899116108,None,,,,,,,,,,,,,643.0084072048194,None,,,,,,,,,,,,,,,,,,,,,,,,,,,,,,,,,634.5767495819168,None,634.5767495819168,None,635.0768371436029,None,639.5777044212559,639.5777044212559,0.009931804521329468,None,639.5777044212559,639.5777044212559,644.5086571886221,None,644.5086571886221,None,None,0.008224512012020568,None,,NENA_035,001,2021_Mar_05_1124,test7,3.2.4,100.64698362692121,
180,53,Solen som ju faktiskt är den närmaste stjärnan sett från jorden är ganska litet och det finns klart större.,14,,0,,inc,1,no,182,199,,,,,,,,,,,,,0,22,22,22,,,,,,,,,,,,,,,,,,,,,,,,,,,,,,,,,,,,,,,,,,,,,,,,,,,,,,,,,,,,,,,,,,,,,,,,,,,,,,,,,,,,,,,,,,,,,655.5100522740058,None,656.0108669504989,None,656.0108669504989,None,right,1,4.925846477743107,656.0108669504989,None,,,,,,,,,,,,,660.9517685856895,None,,,,,,,,,,,,,,,,,,,,,,,,,,,,,,,,,644.5186217726464,None,644.5186217726464,None,645.0187263334874,None,655.0206786704225,655.0206786704225,0.00992731417863979,None,655.0206786704225,655.0206786704225,662.4521632226805,None,662.4521632226805,None,None,0.007836738830519607,None,,NENA_035,001,2021_Mar_05_1124,test7,3.2.4,100.64698362692121,
150,15,Snickaren använde trä som kunden ville inte köpa.  ,6,,7,,inc,1,no,153,154,,,,,,,,,,,,,0,23,23,23,,,,,,,,,,,,,,,,,,,,,,,,,,,,,,,,,,,,,,,,,,,,,,,,,,,,,,,,,,,,,,,,,,,,,,,,,,,,,,,,,,,,,,,,,,,,,667.9524754939539,None,668.4532484744059,None,668.4532484744059,None,right,1,3.051263999445837,668.4532484744059,None,,,,,,,,,,,,,671.5135505718454,None,,,,,,,,,,,,,,,,,,,,,,,,,,,,,,,,,662.4620918839619,None,662.4620918839619,None,662.962188105595,None,667.4630653261497,667.4630653261497,0.009932125260093017,None,667.4630653261497,667.4630653261497,673.0141318788045,None,673.0141318788045,None,None,0.008300527102164779,None,,NENA_035,001,2021_Mar_05_1124,test7,3.2.4,100.64698362692121,
180,29,Rymddräkten som astronauten skulle ha på sig under den långa rymdfärden blev faktiskt färdigt i god tid. ,14,,0,,inc,1,no,182,199,,,,,,,,,,,,,0,24,24,24,,,,,,,,,,,,,,,,,,,,,,,,,,,,,,,,,,,,,,,,,,,,,,,,,,,,,,,,,,,,,,,,,,,,,,,,,,,,,,,,,,,,,,,,,,,,,683.0053290747778,None,683.5061694103729,None,683.5061694103729,None,right,1,3.430275880251884,683.5061694103729,None,,,,,,,,,,,,,686.9466043706434,None,,,,,,,,,,,,,,,,,,,,,,,,,,,,,,,,,673.0241240463633,None,673.0241240463633,None,673.5242202679965,None,682.5159634896636,682.5159634896636,0.009932766737620113,None,682.5159634896636,682.5159634896636,688.4471465474716,None,688.4471465474716,None,None,0.007885811863616254,None,,NENA_035,001,2021_Mar_05_1124,test7,3.2.4,100.64698362692121,
170,76,Gitarren är redan stämd och mikrofonerna är på plats. ,4,,0,,cor,1,no,171,199,,,,,,,,,,,,,0,25,25,25,,,,,,,,,,,,,,,,,,,,,,,,,,,,,,,,,,,,,,,,,,,,,,,,,,,,,,,,,,,,,,,,,,,,,,,,,,,,,,,,,,,,,,,,,,,,,694.4475489463412,None,694.9483565665814,None,694.9483565665814,None,left,1,2.6600807235354296,694.9483565665814,None,,,,,,,,,,,,,697.6185745598982,None,,,,,,,,,,,,,,,,,,,,,,,,,,,,,,,,,688.4571008678549,None,688.4571008678549,None,688.9571739962962,None,693.9580974032347,693.9580974032347,0.009932445998856565,None,693.9580974032347,693.9580974032347,699.1191972421597,None,699.1191972421597,None,None,0.008039124998958869,None,,NENA_035,001,2021_Mar_05_1124,test7,3.2.4,100.64698362692121,
150,90,Luftmadrassen har hål men pojken kan inte se dem utan förstoringsglas. ,6,,7,,cor,1,no,155,156,,,,,,,,,,,,,0,26,26,26,,,,,,,,,,,,,,,,,,,,,,,,,,,,,,,,,,,,,,,,,,,,,,,,,,,,,,,,,,,,,,,,,,,,,,,,,,,,,,,,,,,,,,,,,,,,,706.1198013857197,None,706.6205612158824,None,706.6205612158824,None,left,1,3.763578636488546,706.6205612158824,None,,,,,,,,,,,,,710.4013070746637,None,,,,,,,,,,,,,,,,,,,,,,,,,,,,,,,,,699.1291323182163,None,699.1291323182163,None,699.6292205213799,None,705.6304316310016,705.6304316310016,0.009929559349984629,None,705.6304316310016,705.6304316310016,711.9016449408913,None,711.9016449408913,None,None,0.007842191390409425,None,,NENA_035,001,2021_Mar_05_1124,test7,3.2.4,100.64698362692121,
180,5,Blomman som grannen hade lämnat utan vatten i nästan en vecka var väldigt torrt vid kvinnans hemkomst. ,14,,0,,inc,1,no,182,199,,,,,,,,,,,,,0,27,27,27,,,,,,,,,,,,,,,,,,,,,,,,,,,,,,,,,,,,,,,,,,,,,,,,,,,,,,,,,,,,,,,,,,,,,,,,,,,,,,,,,,,,,,,,,,,,,721.9028235276005,None,722.4035342847301,None,722.4035342847301,None,right,1,3.5005936874758845,722.4035342847301,None,,,,,,,,,,,,,725.9139704830518,None,,,,,,,,,,,,,,,,,,,,,,,,,,,,,,,,,711.9115848280294,None,711.9115848280294,None,712.4116727104542,None,721.4134412640701,721.4134412640701,0.009928597133693984,None,721.4134412640701,721.4134412640701,727.414621069587,None,727.414621069587,None,None,0.00803848352188652,None,,NENA_035,001,2021_Mar_05_1124,test7,3.2.4,100.64698362692121,
150,68,Kunden visade kvittot som säljaren hade inte utfärdat.  ,6,,7,,inc,1,no,153,154,,,,,,,,,,,,,0,28,28,28,,,,,,,,,,,,,,,,,,,,,,,,,,,,,,,,,,,,,,,,,,,,,,,,,,,,,,,,,,,,,,,,,,,,,,,,,,,,,,,,,,,,,,,,,,,,,732.9149294919948,None,733.415745451443,None,733.415745451443,None,right,1,1.3122741598090215,733.415745451443,None,,,,,,,,,,,,,734.7459290230745,None,,,,,,,,,,,,,,,,,,,,,,,,,,,,,,,,,727.4245599945089,None,727.4245599945089,None,727.9246754604687,None,732.4255568506273,732.4255568506273,0.009925069006840204,None,732.4255568506273,732.4255568506273,736.2462797188531,None,736.2462797188531,None,None,0.008260114016138687,None,,NENA_035,001,2021_Mar_05_1124,test7,3.2.4,100.64698362692121,
180,38,Plånboken som hittades i den tomma tunnelbanevagnen sent i fredags kväll var alldeles full med sedlar.  ,14,,0,,cor,1,no,181,199,,,,,,,,,,,,,0,29,29,29,,,,,,,,,,,,,,,,,,,,,,,,,,,,,,,,,,,,,,,,,,,,,,,,,,,,,,,,,,,,,,,,,,,,,,,,,,,,,,,,,,,,,,,,,,,,,745.7474217413424,None,746.248211400211,None,746.248211400211,None,left,1,1.7359145962445837,746.248211400211,None,,,,,,,,,,,,,747.9982648032174,None,,,,,,,,,,,,,,,,,,,,,,,,,,,,,,,,,736.2562208889467,None,736.2562208889467,None,736.756333788996,None,745.2580122150157,745.2580122150157,0.009931163043802371,None,745.2580122150157,745.2580122150157,749.4989012772461,None,749.4989012772461,None,None,0.008189230746665999,None,,NENA_035,001,2021_Mar_05_1124,test7,3.2.4,100.64698362692121,
180,17,Skjortan som reseledaren inför denna speciella dag hade strukit kvällen innan var otroligt skrynklig på morgonen.  ,14,,0,,cor,1,no,181,199,,,,,,,,,,,,,0,30,30,30,,,,,,,,,,,,,,,,,,,,,,,,,,,,,,,,,,,,,,,,,,,,,,,,,,,,,,,,,,,,,,,,,,,,,,,,,,,,,,,,,,,,,,,,,,,,,758.9999688883386,None,759.5007566227746,None,759.5007566227746,None,left,1,1.7792460842606488,759.5007566227746,None,,,,,,,,,,,,,761.2914072157246,None,,,,,,,,,,,,,,,,,,,,,,,,,,,,,,,,,749.5088504658088,None,749.5088504658088,None,750.0089085195277,None,758.5105558338855,758.5105558338855,0.009931804521329468,None,758.5105558338855,758.5105558338855,762.7914089477139,None,762.7914089477139,None,None,0.008048105684792972,None,,NENA_035,001,2021_Mar_05_1124,test7,3.2.4,100.64698362692121,
160,23,Mannen med den vita bilen upptäckte en allvarlig balkongbrand som de nya hyresgästerna i lägenheten bredvid hade inte brytt sig om.,17,,18,,inc,1,no,163,164,,,,,,,,,,,,,0,31,31,31,,,,,,,,,,,,,,,,,,,,,,,,,,,,,,,,,,,,,,,,,,,,,,,,,,,,,,,,,,,,,,,,,,,,,,,,,,,,,,,,,,,,,,,,,,,,,774.7929724209557,None,775.2937001772402,None,775.2937001772402,None,right,1,2.1861073923228105,775.2937001772402,None,,,,,,,,,,,,,777.4940249573256,None,,,,,,,,,,,,,,,,,,,,,,,,,,,,,,,,,762.801370965828,None,762.801370965828,None,763.3014982991222,None,774.303594647768,774.303594647768,0.009932445998856565,None,774.303594647768,774.303594647768,778.9945456446561,None,778.9945456446561,None,None,0.008363071163785207,None,,NENA_035,001,2021_Mar_05_1124,test7,3.2.4,100.64698362692121,
160,37,Den tuffa bostadsmarknaden ställde väldigt höga krav som många unga bostadssökande utan hjälp från föräldrar inte kunde klara av.,16,,17,,cor,1,no,161,162,,,,,,,,,,,,,0,32,32,32,,,,,,,,,,,,,,,,,,,,,,,,,,,,,,,,,,,,,,,,,,,,,,,,,,,,,,,,,,,,,,,,,,,,,,,,,,,,,,,,,,,,,,,,,,,,,789.9959535595908,None,790.4966995979862,None,790.4966995979862,None,left,1,2.0629918128220197,790.4966995979862,None,,,,,,,,,,,,,792.5768118052397,None,,,,,,,,,,,,,,,,,,,,,,,,,,,,,,,,,779.0044797584965,None,779.0044797584965,None,779.5045872059868,None,789.5065251096767,789.5065251096767,0.0099253897460585,None,789.5065251096767,789.5065251096767,794.0774540525666,None,794.0774540525666,None,None,0.008646283503821905,None,,NENA_035,001,2021_Mar_05_1124,test7,3.2.4,100.64698362692121,
140,57,Pensionärer matar ibland fåglar med torr bröd.,3,,4,,inc,1,no,135,136,,,,,,,,,,,,,0,33,33,33,,,,,,,,,,,,,,,,,,,,,,,,,,,,,,,,,,,,,,,,,,,,,,,,,,,,,,,,,,,,,,,,,,,,,,,,,,,,,,,,,,,,,,,,,,,,,799.0776861391455,None,799.5783968962751,None,799.5783968962751,None,right,1,1.3892922000818544,799.5783968962751,None,,,,,,,,,,,,,800.9784822769375,None,,,,,,,,,,,,,,,,,,,,,,,,,,,,,,,,,794.0874019581743,None,794.0874019581743,None,794.5874789354807,None,798.5882727639537,798.5882727639537,0.009929880088748178,None,798.5882727639537,798.5882727639537,802.4790760927089,None,802.4790760927089,None,None,0.007708443320098013,None,,NENA_035,001,2021_Mar_05_1124,test7,3.2.4,100.64698362692121,
170,78,Slaget var mycket våldsamt och många skadades.  ,4,,0,,cor,1,no,173,199,,,,,,,,,,,,,0,34,34,34,,,,,,,,,,,,,,,,,,,,,,,,,,,,,,,,,,,,,,,,,,,,,,,,,,,,,,,,,,,,,,,,,,,,,,,,,,,,,,,,,,,,,,,,,,,,,807.4792712943286,None,807.9800628776297,None,807.9800628776297,None,left,1,1.443556390046524,807.9800628776297,None,,,,,,,,,,,,,809.4400827890931,None,,,,,,,,,,,,,,,,,,,,,,,,,,,,,,,,,802.4890204701901,None,802.4890204701901,None,802.9891061074436,None,806.9898649753895,806.9898649753895,0.009933408216056705,None,806.9898649753895,806.9898649753895,810.9406714730443,None,810.9406714730443,None,None,0.007890943684742524,None,,NENA_035,001,2021_Mar_05_1124,test7,3.2.4,100.64698362692121,
140,44,Piloter flyger ofta flygplan i dålig väder.,3,,4,,inc,1,no,135,136,,,,,,,,,,,,,0,35,35,35,,,,,,,,,,,,,,,,,,,,,,,,,,,,,,,,,,,,,,,,,,,,,,,,,,,,,,,,,,,,,,,,,,,,,,,,,,,,,,,,,,,,,,,,,,,,,815.940939482366,None,816.441700274745,None,816.441700274745,None,right,1,1.5819182873065074,816.441700274745,None,,,,,,,,,,,,,818.0417249074831,None,,,,,,,,,,,,,,,,,,,,,,,,,,,,,,,,,810.9506402266725,None,810.9506402266725,None,811.4507329201792,None,815.4515033347211,815.4515033347211,0.009931163043802371,None,815.4515033347211,815.4515033347211,819.5423472690057,None,819.5423472690057,None,None,0.00813213924448064,None,,NENA_035,001,2021_Mar_05_1124,test7,3.2.4,100.64698362692121,
150,108,Fällan fångade djuret som jägaren ville inte ta hem.  ,6,,7,,inc,1,no,153,154,,,,,,,,,,,,,0,36,36,36,,,,,,,,,,,,,,,,,,,,,,,,,,,,,,,,,,,,,,,,,,,,,,,,,,,,,,,,,,,,,,,,,,,,,,,,,,,,,,,,,,,,,,,,,,,,,825.5427531960017,None,826.0435191202009,None,826.0435191202009,None,left,0,2.5079956969684645,826.0435191202009,None,,,,,,,,,,,,,828.5639793675159,None,,,,,,,,,,,,,,,,,,,,,,,,,,,,,,,,,819.5522047262784,None,819.5522047262784,None,820.0522759302867,None,825.053347839279,825.053347839279,0.00992923861122108,None,825.053347839279,825.053347839279,830.0643499490988,None,830.0643499490988,None,None,0.007605165433687944,None,,NENA_035,001,2021_Mar_05_1124,test7,3.2.4,100.64698362692121,
180,48,Golvet som de små barnen skulle springa runt på i idrottshallen var fruktansvärt sliten efter alla år. ,14,,0,,inc,1,no,182,199,,,,,,,,,,,,,0,37,37,37,,,,,,,,,,,,,,,,,,,,,,,,,,,,,,,,,,,,,,,,,,,,,,,,,,,,,,,,,,,,,,,,,,,,,,,,,,,,,,,,,,,,,,,,,,,,,840.0655516290003,None,840.566305365126,None,840.566305365126,None,right,1,1.1691871388884465,840.566305365126,None,,,,,,,,,,,,,841.7464300170441,None,,,,,,,,,,,,,,,,,,,,,,,,,,,,,,,,,830.0742933643637,None,830.0742933643637,None,830.5743940763396,None,839.5761453100613,839.5761453100613,0.009931804521329468,None,839.5761453100613,839.5761453100613,843.2468724441131,None,843.2468724441131,None,None,0.008534024932487227,None,,NENA_035,001,2021_Mar_05_1124,test7,3.2.4,100.64698362692121,
170,8,Reformen är mycket kritiserat av miljöskäl.  ,4,,0,,inc,1,no,172,199,,,,,,,,,,,,,0,38,38,38,,,,,,,,,,,,,,,,,,,,,,,,,,,,,,,,,,,,,,,,,,,,,,,,,,,,,,,,,,,,,,,,,,,,,,,,,,,,,,,,,,,,,,,,,,,,,847.7470262704301,None,848.2478476824376,None,848.2478476824376,None,right,1,1.3757676080776946,848.2478476824376,None,,,,,,,,,,,,,849.6377791149021,None,,,,,,,,,,,,,,,,,,,,,,,,,,,,,,,,,843.2568476125166,None,843.2568476125166,None,843.7569281179499,None,847.2575968582996,847.2575968582996,0.009931163043802371,None,847.2575968582996,847.2575968582996,851.1384322673474,None,851.1384322673474,None,None,0.007631466013663157,None,,NENA_035,001,2021_Mar_05_1124,test7,3.2.4,100.64698362692121,
170,1,Trädet är mycket gammalt och måste därför fällas snart. ,4,,0,,cor,1,no,173,199,,,,,,,,,,,,,0,39,39,39,,,,,,,,,,,,,,,,,,,,,,,,,,,,,,,,,,,,,,,,,,,,,,,,,,,,,,,,,,,,,,,,,,,,,,,,,,,,,,,,,,,,,,,,,,,,,857.1388141389352,None,857.6396092503628,None,857.6396092503628,None,right,0,4.183662079888563,857.6396092503628,None,,,,,,,,,,,,,861.840082532502,None,,,,,,,,,,,,,,,,,,,,,,,,,,,,,,,,,851.1483625323226,None,851.1483625323226,None,851.6484609991271,None,856.6493959526615,856.6493959526615,0.009930521566275274,None,856.6493959526615,856.6493959526615,863.3407324775598,None,863.3407324775598,None,None,0.008323620294504508,None,,NENA_035,001,2021_Mar_05_1124,test7,3.2.4,100.64698362692121,
140,71,Programmerare utvecklar gärna program för moderna mobiltelefon.,3,,4,,inc,1,no,137,138,,,,,,,,,,,,,0,40,40,40,,,,,,,,,,,,,,,,,,,,,,,,,,,,,,,,,,,,,,,,,,,,,,,,,,,,,,,,,,,,,,,,,,,,,,,,,,,,,,,,,,,,,,,,,,,,,868.3409834877261,None,868.8417741088115,None,868.8417741088115,None,right,1,1.5175325437603533,868.8417741088115,None,,,,,,,,,,,,,870.3718186722567,None,,,,,,,,,,,,,,,,,,,,,,,,,,,,,,,,,863.3506681950939,None,863.3506681950939,None,863.8508032261188,None,867.851580696914,867.851580696914,0.009932125260093017,None,867.851580696914,867.851580696914,871.872385545971,None,871.872385545971,None,None,0.008703054266788968,None,,NENA_035,001,2021_Mar_05_1124,test7,3.2.4,100.64698362692121,
170,74,Handfatet blev nyligen installerad i det nya huset. ,4,,0,,inc,1,no,174,199,,,,,,,,,,,,,0,41,41,41,,,,,,,,,,,,,,,,,,,,,,,,,,,,,,,,,,,,,,,,,,,,,,,,,,,,,,,,,,,,,,,,,,,,,,,,,,,,,,,,,,,,,,,,,,,,,877.3727010246321,None,877.8734778539497,None,877.8734778539497,None,right,1,1.2217337727024642,877.8734778539497,None,,,,,,,,,,,,,879.113693236453,None,,,,,,,,,,,,,,,,,,,,,,,,,,,,,,,,,871.8823523751671,None,871.8823523751671,None,872.3824437857184,None,876.8832914983054,876.8832914983054,0.009934370431892603,None,876.8832914983054,876.8832914983054,880.6140744024154,None,880.6140744024154,None,None,0.007805947908309463,None,,NENA_035,001,2021_Mar_05_1124,test7,3.2.4,100.64698362692121,
170,89,Seglet är för brett för den starka vinden. ,4,,0,,cor,1,no,173,199,,,,,,,,,,,,,0,42,42,42,,,,,,,,,,,,,,,,,,,,,,,,,,,,,,,,,,,,,,,,,,,,,,,,,,,,,,,,,,,,,,,,,,,,,,,,,,,,,,,,,,,,,,,,,,,,,886.1144004654561,None,886.6151904450635,None,886.6151904450635,None,left,1,0.9599852716751229,886.6151904450635,None,,,,,,,,,,,,,887.5857145514692,None,,,,,,,,,,,,,,,,,,,,,,,,,,,,,,,,,880.6240213458073,None,880.6240213458073,None,881.1240941535093,None,885.6249867695255,885.6249867695255,0.009932766737620113,None,885.6249867695255,885.6249867695255,889.0857117931158,None,889.0857117931158,None,None,0.007974335765993601,None,,NENA_035,001,2021_Mar_05_1124,test7,3.2.4,100.64698362692121,
130,74,Journalister tar ofta bilder av framstående människor.,3,,4,,cor,1,yes,137,138,,,,,,,,,,,,,0,43,43,43,,,,,,,,,,,,,,,,,,,,,,,,,,,,,,,,,,,,,,,,,,,,,,,,,,,,,,,,,,,,,,,,,,,,,,,,,,,,,,,,,,,,,,,,,,,,,894.0959281570799,None,894.5967178159485,None,894.5967178159485,None,left,1,1.402417151570262,894.5967178159485,None,,,,,,,,,,,,,896.0167634121731,None,,,,,,,,,,,,,,,,,,,,,,,,,,,,,,,,,889.095654887642,None,889.095654887642,None,889.5957148657931,None,893.606525045529,893.606525045529,0.009929880088748178,None,893.606525045529,893.606525045529,897.5176406327278,None,897.5176406327278,None,space,0.008201739559353882,None,64.12943220897296,NENA_035,001,2021_Mar_05_1124,test7,3.2.4,100.64698362692121,
170,16,Båten är kraftigt skadat och måste bogseras.  ,4,,0,,inc,1,no,172,199,,,,,,,,,,,,,0,44,44,44,,,,,,,,,,,,,,,,,,,,,,,,,,,,,,,,,,,,,,,,,,,,,,,,,,,,,,,,,,,,,,,,,,,,,,,,,,,,,,,,,,,,,,,,,,,,,966.6498709667899,None,967.1506295139975,None,967.1506295139975,None,right,1,1.7839830752559465,967.1506295139975,None,,,,,,,,,,,,,968.9508246514692,None,,,,,,,,,,,,,,,,,,,,,,,,,,,,,,,,,961.6595614474554,None,961.6595614474554,None,962.1596919881376,None,966.1604604782474,966.1604604782474,0.009933728954365506,None,966.1604604782474,966.1604604782474,970.4513328299871,None,970.4513328299871,None,None,0.008691828409610025,None,,NENA_035,001,2021_Mar_05_1124,test7,3.2.4,100.64698362692121,
140,6,Slaktare säljer ofta kött från den omedelbar omgivning.,3,,4,,inc,1,no,131,132,,,,,,,,,,,,,0,45,45,45,,,,,,,,,,,,,,,,,,,,,,,,,,,,,,,,,,,,,,,,,,,,,,,,,,,,,,,,,,,,,,,,,,,,,,,,,,,,,,,,,,,,,,,,,,,,,975.9516710811013,None,976.452433477174,None,976.452433477174,None,right,1,1.5301513694580535,976.452433477174,None,,,,,,,,,,,,,977.9924260745229,None,,,,,,,,,,,,,,,,,,,,,,,,,,,,,,,,,970.4612890748035,None,970.4612890748035,None,970.9613859379137,None,975.4622461593135,975.4622461593135,0.009928917872457532,None,975.4622461593135,975.4622461593135,979.4930737744093,None,979.4930737744093,None,None,0.00783160701075758,None,,NENA_035,001,2021_Mar_05_1124,test7,3.2.4,100.64698362692121,
170,54,Torget var alltid tomt på natten.  ,4,,0,,cor,1,no,173,199,,,,,,,,,,,,,0,46,46,46,,,,,,,,,,,,,,,,,,,,,,,,,,,,,,,,,,,,,,,,,,,,,,,,,,,,,,,,,,,,,,,,,,,,,,,,,,,,,,,,,,,,,,,,,,,,,983.9831884770106,None,984.4839896824751,None,984.4839896824751,None,left,1,1.6905156260722833,984.4839896824751,None,,,,,,,,,,,,,986.1846775388558,None,,,,,,,,,,,,,,,,,,,,,,,,,,,,,,,,,979.5030313021803,None,979.5030313021803,None,980.0031182223888,None,983.4937866484147,983.4937866484147,0.009930200827511726,None,983.4937866484147,983.4937866484147,987.6846176890002,None,987.6846176890002,None,None,0.007955732917253044,None,,NENA_035,001,2021_Mar_05_1124,test7,3.2.4,100.64698362692121,
180,52,Pappret som nu satt i den gula skrivmaskinen framför den trötta författaren var helt blankt och idéerna var slut. ,15,,0,,cor,1,no,181,199,,,,,,,,,,,,,0,47,47,47,,,,,,,,,,,,,,,,,,,,,,,,,,,,,,,,,,,,,,,,,,,,,,,,,,,,,,,,,,,,,,,,,,,,,,,,,,,,,,,,,,,,,,,,,,,,,998.6860259246737,None,999.1868155835427,None,999.1868155835427,None,right,0,1.9076467973272884,999.1868155835427,None,,,,,,,,,,,,,1001.1068961402939,None,,,,,,,,,,,,,,,,,,,,,,,,,,,,,,,,,987.6945999136569,None,987.6945999136569,None,988.194689399776,None,998.1966266619884,998.1966266619884,0.009933087476383662,None,998.1966266619884,998.1966266619884,1002.6074508259343,None,1002.6074508259343,None,None,0.008039766476940713,None,,NENA_035,001,2021_Mar_05_1124,test7,3.2.4,100.64698362692121,
170,32,Champagnen är redan kylt och gäster förväntas.  ,4,,0,,inc,1,no,172,199,,,,,,,,,,,,,0,48,48,48,,,,,,,,,,,,,,,,,,,,,,,,,,,,,,,,,,,,,,,,,,,,,,,,,,,,,,,,,,,,,,,,,,,,,,,,,,,,,,,,,,,,,,,,,,,,,1007.6077246085542,None,1008.1085312665782,None,1008.1085312665782,None,right,1,2.617888499654782,1008.1085312665782,None,,,,,,,,,,,,,1010.738889769139,None,,,,,,,,,,,,,,,,,,,,,,,,,,,,,,,,,1002.6174641622529,None,1002.6174641622529,None,1003.1175693645714,None,1007.1183340058155,1007.1183340058155,0.009925069007294951,None,1007.1183340058155,1007.1183340058155,1012.2393549686602,None,1012.2393549686602,None,None,0.008482706727590994,None,,NENA_035,001,2021_Mar_05_1124,test7,3.2.4,100.64698362692121,
150,46,Ingripanden kräver resurser men polisen inte hade haft tillgång till dem. ,6,,7,,inc,1,no,157,158,,,,,,,,,,,,,0,49,49,49,,,,,,,,,,,,,,,,,,,,,,,,,,,,,,,,,,,,,,,,,,,,,,,,,,,,,,,,,,,,,,,,,,,,,,,,,,,,,,,,,,,,,,,,,,,,,1019.2399680929066,None,1019.7407590347302,None,1019.7407590347302,None,left,0,2.9456492105655343,1019.7407590347302,None,,,,,,,,,,,,,1022.7010541400641,None,,,,,,,,,,,,,,,,,,,,,,,,,,,,,,,,,1012.2493304578029,None,1012.2493304578029,None,1012.7494157743176,None,1018.7505665850495,1018.7505665850495,0.009931804522238963,None,1018.7505665850495,1018.7505665850495,1024.2016492387909,None,1024.2016492387909,None,None,0.008151062832439493,None,,NENA_035,001,2021_Mar_05_1124,test7,3.2.4,100.64698362692121,
150,82,Kocken behövde grönsaker men lärlingen hade inte hämtat dem i tid. ,6,,7,,cor,1,no,155,156,,,,,,,,,,,,,0,50,50,50,,,,,,,,,,,,,,,,,,,,,,,,,,,,,,,,,,,,,,,,,,,,,,,,,,,,,,,,,,,,,,,,,,,,,,,,,,,,,,,,,,,,,,,,,,,,,1031.202277758498,None,1031.7028852377416,None,1031.7028852377416,None,right,0,1.0313512532229652,1031.7028852377416,None,,,,,,,,,,,,,1032.753077328195,None,,,,,,,,,,,,,,,,,,,,,,,,,,,,,,,,,1024.2116353123129,None,1024.2116353123129,None,1024.7117020259784,None,1030.7128509122776,1030.7128509122776,0.009929559350894124,None,1030.7128509122776,1030.7128509122776,1034.253581978586,None,1034.253581978586,None,None,0.008785163394350093,None,,NENA_035,001,2021_Mar_05_1124,test7,3.2.4,100.64698362692121,
160,17,Kvinnan i den lilla kiosken sa några ord på franska som den mycket påstridiga turisten från Sverige kunde inte förstå.,18,,19,,inc,1,no,163,164,,,,,,,,,,,,,0,51,51,51,,,,,,,,,,,,,,,,,,,,,,,,,,,,,,,,,,,,,,,,,,,,,,,,,,,,,,,,,,,,,,,,,,,,,,,,,,,,,,,,,,,,,,,,,,,,,1045.7551072839133,None,1046.2558097018346,None,1046.2558097018346,None,right,1,2.454325515218443,1046.2558097018346,None,,,,,,,,,,,,,1048.726052199594,None,,,,,,,,,,,,,,,,,,,,,,,,,,,,,,,,,1034.2635523359086,None,1034.2635523359086,None,1034.763635407252,None,1045.2656769095665,1045.2656769095665,0.009929238612130575,None,1045.2656769095665,1045.2656769095665,1050.2266934847046,None,1050.2266934847046,None,None,0.007854058723751223,None,,NENA_035,001,2021_Mar_05_1124,test7,3.2.4,100.64698362692121,
180,10,Boken som de rekommenderade alla blivande studenter på programmet att läsa var förvånansvärt roligt efter den sega inledningen. ,14,,0,,inc,1,no,182,199,,,,,,,,,,,,,0,52,52,52,,,,,,,,,,,,,,,,,,,,,,,,,,,,,,,,,,,,,,,,,,,,,,,,,,,,,,,,,,,,,,,,,,,,,,,,,,,,,,,,,,,,,,,,,,,,,1060.7279400680354,None,1061.2287210669565,None,1061.2287210669565,None,left,0,2.049310379555209,1061.2287210669565,None,,,,,,,,,,,,,1063.2890930854492,None,,,,,,,,,,,,,,,,,,,,,,,,,,,,,,,,,1050.23663176815,None,1050.23663176815,None,1050.7367135565373,None,1060.2385090522102,1060.2385090522102,0.009933408214237716,None,1060.2385090522102,1060.2385090522102,1064.7894768173217,None,1064.7894768173217,None,None,0.008097178717434872,None,,NENA_035,001,2021_Mar_05_1124,test7,3.2.4,100.64698362692121,
150,6,Systern köpte godis men syskonen inte fick smaka på det. ,6,,7,,inc,1,no,157,158,,,,,,,,,,,,,0,53,53,53,,,,,,,,,,,,,,,,,,,,,,,,,,,,,,,,,,,,,,,,,,,,,,,,,,,,,,,,,,,,,,,,,,,,,,,,,,,,,,,,,,,,,,,,,,,,,1071.2899542690648,None,1071.7907628515213,None,1071.7907628515213,None,right,1,1.4952963658370209,1071.7907628515213,None,,,,,,,,,,,,,1073.3010438122756,None,,,,,,,,,,,,,,,,,,,,,,,,,,,,,,,,,1064.7993952149627,None,1064.7993952149627,None,1065.2994914365954,None,1070.800568477408,1070.800568477408,0.009928917873367027,None,1070.800568477408,1070.800568477408,1074.8013319639929,None,1074.8013319639929,None,None,0.008297640452838095,None,,NENA_035,001,2021_Mar_05_1124,test7,3.2.4,100.64698362692121,
180,12,Benet som han inte hade velat röra på under hela helgen kändes otroligt ömt efter den långa promenaden. ,14,,0,,cor,1,no,181,199,,,,,,,,,,,,,0,54,54,54,,,,,,,,,,,,,,,,,,,,,,,,,,,,,,,,,,,,,,,,,,,,,,,,,,,,,,,,,,,,,,,,,,,,,,,,,,,,,,,,,,,,,,,,,,,,,1085.2926446259253,None,1085.793469245321,None,1085.793469245321,None,left,1,3.2763357005987928,1085.793469245321,None,,,,,,,,,,,,,1089.0837339895224,None,,,,,,,,,,,,,,,,,,,,,,,,,,,,,,,,,1074.811335357409,None,1074.811335357409,None,1075.3114286923928,None,1084.8032694186486,1084.8032694186486,0.009929880089657672,None,1084.8032694186486,1084.8032694186486,1090.5844288380083,None,1090.5844288380083,None,None,0.008793181864348298,None,,NENA_035,001,2021_Mar_05_1124,test7,3.2.4,100.64698362692121,
150,20,Klättraren gav signaler som partnern kunde inte se.  ,6,,7,,inc,1,no,153,154,,,,,,,,,,,,,0,55,55,55,,,,,,,,,,,,,,,,,,,,,,,,,,,,,,,,,,,,,,,,,,,,,,,,,,,,,,,,,,,,,,,,,,,,,,,,,,,,,,,,,,,,,,,,,,,,,1096.084723468649,None,1096.5855227496804,None,1096.5855227496804,None,left,0,3.372362003744456,1096.5855227496804,None,,,,,,,,,,,,,1099.9761444119931,None,,,,,,,,,,,,,,,,,,,,,,,,,,,,,,,,,1090.594378668049,None,1090.594378668049,None,1091.0944469854085,None,1095.5953171497104,1095.5953171497104,0.009931804520419973,None,1095.5953171497104,1095.5953171497104,1101.4765021640249,None,1101.4765021640249,None,None,0.008110970486086444,None,,NENA_035,001,2021_Mar_05_1124,test7,3.2.4,100.64698362692121,
140,78,Poliser kontrollerar ofta bilar som köra för fort.,3,,4,,inc,1,no,137,138,,,,,,,,,,,,,0,56,56,56,,,,,,,,,,,,,,,,,,,,,,,,,,,,,,,,,,,,,,,,,,,,,,,,,,,,,,,,,,,,,,,,,,,,,,,,,,,,,,,,,,,,,,,,,,,,,1106.976867677935,None,1107.477631036224,None,1107.477631036224,None,right,1,2.072206317142445,1107.477631036224,None,,,,,,,,,,,,,1109.5677114839236,None,,,,,,,,,,,,,,,,,,,,,,,,,,,,,,,,,1101.4864548807136,None,1101.4864548807136,None,1101.9864491074159,None,1106.4874417939309,1106.4874417939309,0.009927955657076382,None,1106.4874417939309,1106.4874417939309,1111.0683716926221,None,1111.0683716926221,None,None,0.008654622712128912,None,,NENA_035,001,2021_Mar_05_1124,test7,3.2.4,100.64698362692121,
170,98,Tornet var ganska hög men det fanns några högre. ,4,,0,,inc,1,no,174,199,,,,,,,,,,,,,0,57,57,57,,,,,,,,,,,,,,,,,,,,,,,,,,,,,,,,,,,,,,,,,,,,,,,,,,,,,,,,,,,,,,,,,,,,,,,,,,,,,,,,,,,,,,,,,,,,,1117.0687676767157,None,1117.5695653540542,None,1117.5695653540542,None,right,1,2.44412441842087,1117.5695653540542,None,,,,,,,,,,,,,1120.0299255693599,None,,,,,,,,,,,,,,,,,,,,,,,,,,,,,,,,,1111.0783061272014,None,1111.0783061272014,None,1111.578401065879,None,1116.5793571881732,1116.5793571881732,0.009931483781656425,None,1116.5793571881732,1116.5793571881732,1121.530367996428,None,1121.530367996428,None,None,0.007966638035213691,None,,NENA_035,001,2021_Mar_05_1124,test7,3.2.4,100.64698362692121,
130,66,Barn äter ofta mat med för mycket socker.,3,,4,,cor,1,no,137,138,,,,,,,,,,,,,0,58,58,58,,,,,,,,,,,,,,,,,,,,,,,,,,,,,,,,,,,,,,,,,,,,,,,,,,,,,,,,,,,,,,,,,,,,,,,,,,,,,,,,,,,,,,,,,,,,,1127.0306648722399,None,1127.5314760206065,None,1127.5314760206065,None,left,1,0.7862753952940693,1127.5314760206065,None,,,,,,,,,,,,,1128.331381530963,None,,,,,,,,,,,,,,,,,,,,,,,,,,,,,,,,,1121.5403239205052,None,1121.5403239205052,None,1122.0403938415593,None,1126.5412668925092,1126.5412668925092,0.009932125259183522,None,1126.5412668925092,1126.5412668925092,1129.8319362166037,None,1129.8319362166037,None,None,0.008120271910229349,None,,NENA_035,001,2021_Mar_05_1124,test7,3.2.4,100.64698362692121,
170,92,Lektionen var för anspråksfull för de flesta.  ,4,,0,,cor,1,no,171,199,,,,,,,,,,,,,0,59,59,59,,,,,,,,,,,,,,,,,,,,,,,,,,,,,,,,,,,,,,,,,,,,,,,,,,,,,,,,,,,,,,,,,,,,,,,,,,,,,,,,,,,,,,,,,,,,,1134.8321654165338,None,1135.332970470864,None,1135.332970470864,None,left,1,3.15256100291208,1135.332970470864,None,,,,,,,,,,,,,1138.503527485068,None,,,,,,,,,,,,,,,,,,,,,,,,,,,,,,,,,1129.8419441003634,None,1129.8419441003634,None,1130.3419764949795,None,1134.3427786626607,1134.3427786626607,0.009928597132784489,None,1134.3427786626607,1134.3427786626607,1140.0039269331407,None,1140.0039269331407,None,None,0.008741222181015473,None,,NENA_035,001,2021_Mar_05_1124,test7,3.2.4,100.64698362692121,
140,31,Arbetsgivare sänker ibland lönen utan att informerar facket.,3,,4,,inc,1,no,133,134,,,,,,,,,,,,,0,60,60,60,,,,,,,,,,,,,,,,,,,,,,,,,,,,,,,,,,,,,,,,,,,,,,,,,,,,,,,,,,,,,,,,,,,,,,,,,,,,,,,,,,,,,,,,,,,,,1145.504224771169,None,1146.005025976634,None,1146.005025976634,None,right,1,1.400527358697218,1146.005025976634,None,,,,,,,,,,,,,1147.4150106389052,None,,,,,,,,,,,,,,,,,,,,,,,,,,,,,,,,,1140.0138738765327,None,1140.0138738765327,None,1140.5139819654996,None,1145.0147687377194,1145.0147687377194,0.009929559349075134,None,1145.0147687377194,1145.0147687377194,1148.9156262649137,None,1148.9156262649137,None,None,0.00783288996626652,None,,NENA_035,001,2021_Mar_05_1124,test7,3.2.4,100.64698362692121,
150,98,Arrangörerna genomförde tävlingen men idrottarna ville inte delta i den.  ,6,,7,,cor,1,no,155,156,,,,,,,,,,,,,0,61,61,61,,,,,,,,,,,,,,,,,,,,,,,,,,,,,,,,,,,,,,,,,,,,,,,,,,,,,,,,,,,,,,,,,,,,,,,,,,,,,,,,,,,,,,,,,,,,,1155.416115583992,None,1155.9169418070805,None,1155.9169418070805,None,left,1,1.296524602908903,1155.9169418070805,None,,,,,,,,,,,,,1157.2272463100608,None,,,,,,,,,,,,,,,,,,,,,,,,,,,,,,,,,1148.9255908489376,None,1148.9255908489376,None,1149.4256607699908,None,1154.9267541684812,1154.9267541684812,0.009933728953910759,None,1154.9267541684812,1154.9267541684812,1158.7275014256836,None,1158.7275014256836,None,None,0.008223870533583977,None,,NENA_035,001,2021_Mar_05_1124,test7,3.2.4,100.64698362692121,
160,3,De nya grannarna spelar hitlåtar från 90-talet som de yngre hyresgästerna på våningen ovan inte har hört förut.,15,,16,,cor,1,no,161,162,,,,,,,,,,,,,0,62,62,62,,,,,,,,,,,,,,,,,,,,,,,,,,,,,,,,,,,,,,,,,,,,,,,,,,,,,,,,,,,,,,,,,,,,,,,,,,,,,,,,,,,,,,,,,,,,,1169.2287669326015,None,1169.7295761565356,None,1169.7295761565356,None,left,1,1.8278652717517616,1169.7295761565356,None,,,,,,,,,,,,,1171.5699957854922,None,,,,,,,,,,,,,,,,,,,,,,,,,,,,,,,,,1158.7374368224791,None,1158.7374368224791,None,1159.2375506847457,None,1168.7394007060102,1168.7394007060102,0.009930200826602231,None,1168.7394007060102,1168.7394007060102,1173.0702598818013,None,1173.0702598818013,None,None,0.00826396288084652,None,,NENA_035,001,2021_Mar_05_1124,test7,3.2.4,100.64698362692121,
160,39,Målaren på marken berättade en rolig historia som kollegan på den övre balkongen kunde inte höra.,14,,15,,inc,1,no,163,164,,,,,,,,,,,,,0,63,63,63,,,,,,,,,,,,,,,,,,,,,,,,,,,,,,,,,,,,,,,,,,,,,,,,,,,,,,,,,,,,,,,,,,,,,,,,,,,,,,,,,,,,,,,,,,,,,1182.5613653464843,None,1183.062149552794,None,1183.062149552794,None,right,1,3.9911931546648702,1183.062149552794,None,,,,,,,,,,,,,1187.0628269530907,None,,,,,,,,,,,,,,,,,,,,,,,,,,,,,,,,,1173.0802007311559,None,1173.0802007311559,None,1173.579723151117,None,1182.071946518733,1182.071946518733,0.00993020082842122,None,1182.071946518733,1182.071946518733,1188.5632456454903,None,1188.5632456454903,None,None,0.008607794849922357,None,,NENA_035,001,2021_Mar_05_1124,test7,3.2.4,100.64698362692121,
170,106,Släpet är nu lastad så vi kan åka. ,4,,0,,inc,1,no,174,199,,,,,,,,,,,,,0,64,64,64,,,,,,,,,,,,,,,,,,,,,,,,,,,,,,,,,,,,,,,,,,,,,,,,,,,,,,,,,,,,,,,,,,,,,,,,,,,,,,,,,,,,,,,,,,,,,1194.0635608034117,None,1194.5643533489301,None,1194.5643533489301,None,right,1,2.0008701643018867,1194.5643533489301,None,,,,,,,,,,,,,1196.5844133142518,None,,,,,,,,,,,,,,,,,,,,,,,,,,,,,,,,,1188.5732121539468,None,1188.5732121539468,None,1189.0733051681918,None,1193.574177577665,1193.574177577665,0.009930521567184769,None,1193.574177577665,1193.574177577665,1198.0851017479624,None,1198.0851017479624,None,None,0.00785983202240459,None,,NENA_035,001,2021_Mar_05_1124,test7,3.2.4,100.64698362692121,
170,40,Spenaten är för beskt för barnen.  ,4,,0,,inc,1,no,172,199,,,,,,,,,,,,,0,65,65,65,,,,,,,,,,,,,,,,,,,,,,,,,,,,,,,,,,,,,,,,,,,,,,,,,,,,,,,,,,,,,,,,,,,,,,,,,,,,,,,,,,,,,,,,,,,,,1202.5851933509566,None,1203.0860009711969,None,1203.0860009711969,None,right,1,3.383167051660166,1203.0860009711969,None,,,,,,,,,,,,,1206.4864176750161,None,,,,,,,,,,,,,,,,,,,,,,,,,,,,,,,,,1198.0950461254433,None,1198.0950461254433,None,1198.5951144428027,None,1202.0958242377164,1202.0958242377164,0.009933087475474167,None,1202.0958242377164,1202.0958242377164,1207.9869970575426,None,1207.9869970575426,None,None,0.008258510321866197,None,,NENA_035,001,2021_Mar_05_1124,test7,3.2.4,100.64698362692121,
170,53,Programmet är vanligtvis tråkig på lördagskvällen.  ,4,,0,,inc,1,no,174,199,,,,,,,,,,,,,0,66,66,66,,,,,,,,,,,,,,,,,,,,,,,,,,,,,,,,,,,,,,,,,,,,,,,,,,,,,,,,,,,,,,,,,,,,,,,,,,,,,,,,,,,,,,,,,,,,,1212.4870905849702,None,1212.987896280777,None,1212.987896280777,None,left,0,1.1212604264155743,1212.987896280777,None,,,,,,,,,,,,,1214.1277945167785,None,,,,,,,,,,,,,,,,,,,,,,,,,,,,,,,,,1207.9969144929664,None,1207.9969144929664,None,1208.4969828103258,None,1211.9977057555288,1211.9977057555288,0.009927955656166887,None,1211.9977057555288,1211.9977057555288,1215.6283985961907,None,1215.6283985961907,None,None,0.008275830216916802,None,,NENA_035,001,2021_Mar_05_1124,test7,3.2.4,100.64698362692121,
150,85,Kraftverket genererade elöverskott men konsumenterna hade inte behövt detta under sommaren. ,6,,7,,cor,1,no,155,156,,,,,,,,,,,,,0,67,67,67,,,,,,,,,,,,,,,,,,,,,,,,,,,,,,,,,,,,,,,,,,,,,,,,,,,,,,,,,,,,,,,,,,,,,,,,,,,,,,,,,,,,,,,,,,,,,1222.6290527749998,None,1223.129843075346,None,1223.129843075346,None,left,1,4.971384327805026,1223.129843075346,None,,,,,,,,,,,,,1228.1105843154892,None,,,,,,,,,,,,,,,,,,,,,,,,,,,,,,,,,1215.6383602935657,None,1215.6383602935657,None,1216.1384927586805,None,1222.1396410035022,1222.1396410035022,0.009933408214237716,None,1222.1396410035022,1222.1396410035022,1229.611072928942,None,1229.611072928942,None,None,0.008235096391217667,None,,NENA_035,001,2021_Mar_05_1124,test7,3.2.4,100.64698362692121,
140,7,Kor ger ofta mjölk med hög fettinnehåll.,3,,4,,inc,1,no,131,132,,,,,,,,,,,,,0,68,68,68,,,,,,,,,,,,,,,,,,,,,,,,,,,,,,,,,,,,,,,,,,,,,,,,,,,,,,,,,,,,,,,,,,,,,,,,,,,,,,,,,,,,,,,,,,,,,1234.6113698047538,None,1235.1121245030954,None,1235.1121245030954,None,left,0,3.404869199519453,1235.1121245030954,None,,,,,,,,,,,,,1238.5327679563998,None,,,,,,,,,,,,,,,,,,,,,,,,,,,,,,,,,1229.62104681439,None,1229.62104681439,None,1230.1211382249421,None,1234.1219554673453,1234.1219554673453,0.009932766736710619,None,1234.1219554673453,1234.1219554673453,1240.0331619519136,None,1240.0331619519136,None,None,0.0077908731864226866,None,,NENA_035,001,2021_Mar_05_1124,test7,3.2.4,100.64698362692121,
160,60,Bilden av det svarta hålet visar strålning på mycket korta våglängder som det mänskliga ögat med dess begränsningar kan inte uppfatta.,19,,20,,inc,1,no,163,164,,,,,,,,,,,,,0,69,69,69,,,,,,,,,,,,,,,,,,,,,,,,,,,,,,,,,,,,,,,,,,,,,,,,,,,,,,,,,,,,,,,,,,,,,,,,,,,,,,,,,,,,,,,,,,,,,1252.0347286325432,None,1252.5355041789053,None,1252.5355041789053,None,right,1,2.9333251438029038,1252.5355041789053,None,,,,,,,,,,,,,1255.4860465802512,None,,,,,,,,,,,,,,,,,,,,,,,,,,,,,,,,,1240.043092216889,None,1240.043092216889,None,1240.5431916459092,None,1251.5453082010981,1251.5453082010981,0.009929238610311586,None,1251.5453082010981,1251.5453082010981,1256.9863992004628,None,1256.9863992004628,None,None,0.008184419664758025,None,,NENA_035,001,2021_Mar_05_1124,test7,3.2.4,100.64698362692121,
150,17,Musikern fick ett pris men han inte ville acceptera det.  ,6,,7,,inc,1,no,157,158,,,,,,,,,,,,,0,70,70,70,,,,,,,,,,,,,,,,,,,,,,,,,,,,,,,,,,,,,,,,,,,,,,,,,,,,,,,,,,,,,,,,,,,,,,,,,,,,,,,,,,,,,,,,,,,,,1263.4869186689857,None,1263.9877144218908,None,1263.9877144218908,None,right,1,2.6730722476931987,1263.9877144218908,None,,,,,,,,,,,,,1266.677881404913,None,,,,,,,,,,,,,,,,,,,,,,,,,,,,,,,,,1256.9963791799482,None,1256.9963791799482,None,1257.4964125367806,None,1262.9974873324218,1262.9974873324218,0.0099253897460585,None,1262.9974873324218,1262.9974873324218,1268.1785563675946,None,1268.1785563675946,None,None,0.0077802888063160935,None,,NENA_035,001,2021_Mar_05_1124,test7,3.2.4,100.64698362692121,
160,10,Lokalerna på Sveavägen inrymmer en hel del arbetsplatser som de undervisande lärarna på den inhysta skolan inte kan använda.,17,,18,,cor,1,no,161,162,,,,,,,,,,,,,0,71,71,71,,,,,,,,,,,,,,,,,,,,,,,,,,,,,,,,,,,,,,,,,,,,,,,,,,,,,,,,,,,,,,,,,,,,,,,,,,,,,,,,,,,,,,,,,,,,,1279.179920982795,None,1279.6806217970225,None,1279.6806217970225,None,left,1,1.3642540482042023,1279.6806217970225,None,,,,,,,,,,,,,1281.0608900116167,None,,,,,,,,,,,,,,,,,,,,,,,,,,,,,,,,,1268.1885154990596,None,1268.1885154990596,None,1268.6885764394274,None,1278.6904893254932,1278.6904893254932,0.009932125261002511,None,1278.6904893254932,1278.6904893254932,1282.5613228165228,None,1282.5613228165228,None,None,0.007836738831429102,None,,NENA_035,001,2021_Mar_05_1124,test7,3.2.4,100.64698362692121,
180,28,Berget som de underbetalda gruvarbetarna hade fått i uppgift att spränga var fullkomligt ogenomträngligt och de gav därför upp.,14,,0,,cor,1,no,181,199,,,,,,,,,,,,,0,72,72,72,,,,,,,,,,,,,,,,,,,,,,,,,,,,,,,,,,,,,,,,,,,,,,,,,,,,,,,,,,,,,,,,,,,,,,,,,,,,,,,,,,,,,,,,,,,,,1293.5626832621183,None,1294.063478052808,None,1294.063478052808,None,left,1,7.285085133693428,1294.063478052808,None,,,,,,,,,,,,,1301.3646354066104,None,,,,,,,,,,,,,,,,,,,,,,,,,,,,,,,,,1282.5712662317874,None,1282.5712662317874,None,1283.0713162670372,None,1293.0732435863474,1293.0732435863474,0.009932766737620113,None,1293.0732435863474,1293.0732435863474,1302.8652135061818,None,1302.8652135061818,None,None,0.007699462635173404,None,,NENA_035,001,2021_Mar_05_1124,test7,3.2.4,100.64698362692121,
150,119,Byborna byggde murar som fienden kunde inte riva.  ,6,,7,,inc,1,no,153,154,,,,,,,,,,,,,0,73,73,73,,,,,,,,,,,,,,,,,,,,,,,,,,,,,,,,,,,,,,,,,,,,,,,,,,,,,,,,,,,,,,,,,,,,,,,,,,,,,,,,,,,,,,,,,,,,,1308.3655241737606,None,1308.8663115874579,None,1308.8663115874579,None,right,1,1.1782826491225933,1308.8663115874579,None,,,,,,,,,,,,,1310.056958716429,None,,,,,,,,,,,,,,,,,,,,,,,,,,,,,,,,,1302.8751752035569,None,1302.8751752035569,None,1303.3752848962185,None,1307.876131325851,1307.876131325851,0.00993244599794707,None,1307.876131325851,1307.876131325851,1311.5568754526428,None,1311.5568754526428,None,None,0.007922376084934513,None,,NENA_035,001,2021_Mar_05_1124,test7,3.2.4,100.64698362692121,
150,99,Turismen orsakar nedskräpning som staden inte kan hantera.  ,6,,7,,cor,1,no,151,152,,,,,,,,,,,,,0,74,74,74,,,,,,,,,,,,,,,,,,,,,,,,,,,,,,,,,,,,,,,,,,,,,,,,,,,,,,,,,,,,,,,,,,,,,,,,,,,,,,,,,,,,,,,,,,,,,1317.0572072889809,None,1317.5579930989843,None,1317.5579930989843,None,left,1,5.294440763075727,1317.5579930989843,None,,,,,,,,,,,,,1322.8687668427947,None,,,,,,,,,,,,,,,,,,,,,,,,,,,,,,,,,1311.5668454892257,None,1311.5668454892257,None,1312.0669202213612,None,1316.5678006493035,1316.5678006493035,0.009930842305948318,None,1316.5678006493035,1316.5678006493035,1324.3693510364035,None,1324.3693510364035,None,None,0.007766817778247059,None,,NENA_035,001,2021_Mar_05_1124,test7,3.2.4,100.64698362692121,
170,48,Anställningen var ganska välbetalt och det fanns många sökande. ,4,,0,,inc,1,no,172,199,,,,,,,,,,,,,0,75,75,75,,,,,,,,,,,,,,,,,,,,,,,,,,,,,,,,,,,,,,,,,,,,,,,,,,,,,,,,,,,,,,,,,,,,,,,,,,,,,,,,,,,,,,,,,,,,,1330.3697758869866,None,1330.8705559236923,None,1330.8705559236923,None,right,1,1.949984636613408,1330.8705559236923,None,,,,,,,,,,,,,1332.8306508880296,None,,,,,,,,,,,,,,,,,,,,,,,,,,,,,,,,,1324.3793127337785,None,1324.3793127337785,None,1324.879389069607,None,1329.8803544933262,1329.8803544933262,0.009932125259183522,None,1329.8803544933262,1329.8803544933262,1334.3312726080746,None,1334.3312726080746,None,None,0.00818441966566752,None,,NENA_035,001,2021_Mar_05_1124,test7,3.2.4,100.64698362692121,
160,46,Den ensamma nattvakten öppnade ett skåp bakom disken som de oaktsamma kollegorna på arbetsplatsen kunde inte hitta.,15,,16,,inc,1,no,163,164,,,,,,,,,,,,,0,76,76,76,,,,,,,,,,,,,,,,,,,,,,,,,,,,,,,,,,,,,,,,,,,,,,,,,,,,,,,,,,,,,,,,,,,,,,,,,,,,,,,,,,,,,,,,,,,,,1344.3324540814328,None,1344.8332325144447,None,1344.8332325144447,None,right,1,4.467071994949947,1344.8332325144447,None,,,,,,,,,,,,,1349.314922179151,None,,,,,,,,,,,,,,,,,,,,,,,,,,,,,,,,,1334.341223079593,None,1334.341223079593,None,1334.8411804213356,None,1343.8430445551066,1343.8430445551066,0.009931483783475414,None,1343.8430445551066,1343.8430445551066,1350.814435105244,None,1350.814435105244,None,None,0.008672904821651173,None,,NENA_035,001,2021_Mar_05_1124,test7,3.2.4,100.64698362692121,
180,45,Citronen som den här gången inte köpts i affären utan plockats från gården var otroligt surt men smakade ändå bra. ,16,,0,,inc,1,no,182,199,,,,,,,,,,,,,0,77,77,77,,,,,,,,,,,,,,,,,,,,,,,,,,,,,,,,,,,,,,,,,,,,,,,,,,,,,,,,,,,,,,,,,,,,,,,,,,,,,,,,,,,,,,,,,,,,,1362.3159090923673,None,1362.8166961853258,None,1362.8166961853258,None,right,1,2.1475687038500837,1362.8166961853258,None,,,,,,,,,,,,,1364.976859659465,None,,,,,,,,,,,,,,,,,,,,,,,,,,,,,,,,,1350.8244006514842,None,1350.8244006514842,None,1351.3244785910074,None,1361.8264549833502,1361.8264549833502,0.009930842305948318,None,1361.8264549833502,1361.8264549833502,1366.4774618144445,None,1366.4774618144445,None,None,0.007754950443086273,None,,NENA_035,001,2021_Mar_05_1124,test7,3.2.4,100.64698362692121,
180,44,Bröllopet som för att vara en vuxenfest avslutades alldeles för tidigt var ändå jättelyckat enligt de flesta gästerna. ,14,,0,,cor,1,no,181,199,,,,,,,,,,,,,0,78,78,78,,,,,,,,,,,,,,,,,,,,,,,,,,,,,,,,,,,,,,,,,,,,,,,,,,,,,,,,,,,,,,,,,,,,,,,,,,,,,,,,,,,,,,,,,,,,,1376.9787241139747,None,1377.4794053631376,None,1377.4794053631376,None,right,0,2.4206495473417817,1377.4794053631376,None,,,,,,,,,,,,,1379.9198954904768,None,,,,,,,,,,,,,,,,,,,,,,,,,,,,,,,,,1366.4873981734572,None,1366.4873981734572,None,1366.9874783581508,None,1376.4893177950362,1376.4893177950362,0.009932766736710619,None,1376.4893177950362,1376.4893177950362,1381.4202994288923,None,1381.4202994288923,None,None,0.007842832867936522,None,,NENA_035,001,2021_Mar_05_1124,test7,3.2.4,100.64698362692121,
180,36,Biobesöket som de alla hade sett fram emot så mycket den här veckan blev ganska tråkigt av någon anledning. ,16,,0,,cor,1,no,181,199,,,,,,,,,,,,,0,79,79,79,,,,,,,,,,,,,,,,,,,,,,,,,,,,,,,,,,,,,,,,,,,,,,,,,,,,,,,,,,,,,,,,,,,,,,,,,,,,,,,,,,,,,,,,,,,,,1392.4216762321657,None,1392.922479682802,None,1392.922479682802,None,left,1,2.0895287770035793,1392.922479682802,None,,,,,,,,,,,,,1395.0225938016592,None,,,,,,,,,,,,,,,,,,,,,,,,,,,,,,,,,1381.4302694654762,None,1381.4302694654762,None,1381.9303624797212,None,1391.9322760072637,1391.9322760072637,0.00993244599976606,None,1391.9322760072637,1391.9322760072637,1396.5232081447118,None,1396.5232081447118,None,None,0.007995183786988491,None,,NENA_035,001,2021_Mar_05_1124,test7,3.2.4,100.64698362692121,
150,31,Lakrits innehåller sötningsmedel som barnen fick inte äta.  ,6,,7,,inc,1,no,153,154,,,,,,,,,,,,,0,80,80,80,,,,,,,,,,,,,,,,,,,,,,,,,,,,,,,,,,,,,,,,,,,,,,,,,,,,,,,,,,,,,,,,,,,,,,,,,,,,,,,,,,,,,,,,,,,,,1402.0235098316061,None,1402.5243132822416,None,1402.5243132822416,None,right,1,1.9276525577961365,1402.5243132822416,None,,,,,,,,,,,,,1404.4643832417842,None,,,,,,,,,,,,,,,,,,,,,,,,,,,,,,,,,1396.5331496355448,None,1396.5331496355448,None,1397.0332205188142,None,1401.5341410391038,1401.5341410391038,0.009929880089657672,None,1401.5341410391038,1401.5341410391038,1405.9650213195061,None,1405.9650213195061,None,None,0.008322978816977411,None,,NENA_035,001,2021_Mar_05_1124,test7,3.2.4,100.64698362692121,
180,49,Ålen som tidigt rödlistades på grund av det nära förestående utrotningshotet är fortfarande vanlig som julmat.  ,14,,0,,cor,1,no,181,199,,,,,,,,,,,,,0,81,81,81,,,,,,,,,,,,,,,,,,,,,,,,,,,,,,,,,,,,,,,,,,,,,,,,,,,,,,,,,,,,,,,,,,,,,,,,,,,,,,,,,,,,,,,,,,,,,1415.4661232496483,None,1415.9669218892031,None,1415.9669218892031,None,left,1,1.508990307916065,1415.9669218892031,None,,,,,,,,,,,,,1417.487379570608,None,,,,,,,,,,,,,,,,,,,,,,,,,,,,,,,,,1405.974972432502,None,1405.974972432502,None,1406.4750728237395,None,1414.9767121196282,1414.9767121196282,0.009925069006385456,None,1414.9767121196282,1414.9767121196282,1418.9875570674465,None,1418.9875570674465,None,None,0.008186985573956918,None,,NENA_035,001,2021_Mar_05_1124,test7,3.2.4,100.64698362692121,
160,6,Det svenska landslaget spelade en historisk match som de öldrickande gubbarna i restaurangen skulle inte glömma.,14,,15,,inc,1,no,163,164,,,,,,,,,,,,,0,82,82,82,,,,,,,,,,,,,,,,,,,,,,,,,,,,,,,,,,,,,,,,,,,,,,,,,,,,,,,,,,,,,,,,,,,,,,,,,,,,,,,,,,,,,,,,,,,,,1428.4886266029725,None,1428.9893117009997,None,1428.9893117009997,None,right,1,1.6544312307196378,1428.9893117009997,None,,,,,,,,,,,,,1430.659404285455,None,,,,,,,,,,,,,,,,,,,,,,,,,,,,,,,,,1418.9974985582794,None,1418.9974985582794,None,1419.4975194063,None,1427.9992193218168,1427.9992193218168,0.009927955655257392,None,1427.9992193218168,1427.9992193218168,1432.1600484572143,None,1432.1600484572143,None,None,0.008030465052797808,None,,NENA_035,001,2021_Mar_05_1124,test7,3.2.4,100.64698362692121,
170,49,Museet är väldigt populärt och har ett gott rykte. ,4,,0,,cor,1,no,173,199,,,,,,,,,,,,,0,83,83,83,,,,,,,,,,,,,,,,,,,,,,,,,,,,,,,,,,,,,,,,,,,,,,,,,,,,,,,,,,,,,,,,,,,,,,,,,,,,,,,,,,,,,,,,,,,,,1438.1504915963233,None,1438.651270350074,None,1438.651270350074,None,left,1,2.2485202716525237,1438.651270350074,None,,,,,,,,,,,,,1440.911526774311,None,,,,,,,,,,,,,,,,,,,,,,,,,,,,,,,,,1432.1699925139574,None,1432.1699925139574,None,1432.6701179228185,None,1437.6610859188622,1437.6610859188622,0.009929559349075134,None,1437.6610859188622,1437.6610859188622,1442.411999992302,None,1442.411999992302,None,None,0.008545571527974971,None,,NENA_035,001,2021_Mar_05_1124,test7,3.2.4,100.64698362692121,
150,80,Dataviruset installerade programmet som användaren inte kunde upptäcka.  ,6,,7,,cor,1,no,151,152,,,,,,,,,,,,,0,84,84,84,,,,,,,,,,,,,,,,,,,,,,,,,,,,,,,,,,,,,,,,,,,,,,,,,,,,,,,,,,,,,,,,,,,,,,,,,,,,,,,,,,,,,,,,,,,,,1447.9123703172936,None,1448.4131311096726,None,1448.4131311096726,None,left,1,3.638553699048316,1448.4131311096726,None,,,,,,,,,,,,,1452.0635688218817,None,,,,,,,,,,,,,,,,,,,,,,,,,,,,,,,,,1442.4219844621311,None,1442.4219844621311,None,1442.9220768348987,None,1447.4229726583026,1447.4229726583026,0.009931804522238963,None,1447.4229726583026,1447.4229726583026,1453.5641466007144,None,1453.5641466007144,None,None,0.007383214199762733,None,,NENA_035,001,2021_Mar_05_1124,test7,3.2.4,100.64698362692121,
160,40,Den trevliga städerskan avlägsnade de nytvättade sängkläderna som gästerna i ett av hotellets finaste rum inte hade efterfrågat.,16,,17,,cor,1,no,161,162,,,,,,,,,,,,,0,85,85,85,,,,,,,,,,,,,,,,,,,,,,,,,,,,,,,,,,,,,,,,,,,,,,,,,,,,,,,,,,,,,,,,,,,,,,,,,,,,,,,,,,,,,,,,,,,,,1464.065458294016,None,1464.5662524432273,None,1464.5662524432273,None,left,1,2.677365336220646,1464.5662524432273,None,,,,,,,,,,,,,1467.2568703849702,None,,,,,,,,,,,,,,,,,,,,,,,,,,,,,,,,,1453.574111505477,None,1453.574111505477,None,1454.074197784208,None,1463.576058069114,1463.576058069114,0.009932125259183522,None,1463.576058069114,1463.576058069114,1468.7570921437598,None,1468.7570921437598,None,None,0.008252095545685734,None,,NENA_035,001,2021_Mar_05_1124,test7,3.2.4,100.64698362692121,
170,111,Villan är alltför stor för endast en person. ,4,,0,,cor,1,no,171,199,,,,,,,,,,,,,0,86,86,86,,,,,,,,,,,,,,,,,,,,,,,,,,,,,,,,,,,,,,,,,,,,,,,,,,,,,,,,,,,,,,,,,,,,,,,,,,,,,,,,,,,,,,,,,,,,,1474.2573941513929,None,1474.758134737228,None,1474.758134737228,None,left,1,1.9255751327373218,1474.758134737228,None,,,,,,,,,,,,,1476.6983297848938,None,,,,,,,,,,,,,,,,,,,,,,,,,,,,,,,,,1468.7670426152781,None,1468.7670426152781,None,1469.267123762189,None,1473.7680224722417,1473.7680224722417,0.009929880088748178,None,1473.7680224722417,1473.7680224722417,1478.198906922248,None,1478.198906922248,None,None,0.008793502602202352,None,,NENA_035,001,2021_Mar_05_1124,test7,3.2.4,100.64698362692121,
150,71,Gruvarbetarna andades damm som läkarna kunde inte identifiera.  ,6,,7,,inc,1,yes,153,154,,,,,,,,,,,,,0,87,87,87,,,,,,,,,,,,,,,,,,,,,,,,,,,,,,,,,,,,,,,,,,,,,,,,,,,,,,,,,,,,,,,,,,,,,,,,,,,,,,,,,,,,,,,,,,,,,1483.6992207972153,None,1484.1999867214145,None,1484.1999867214145,None,right,1,3.5395002633258628,1484.1999867214145,None,,,,,,,,,,,,,1487.7504190452119,None,,,,,,,,,,,,,,,,,,,,,,,,,,,,,,,,,1478.20886701593,None,1478.20886701593,None,1478.7089584264813,None,1483.2097618771177,1483.2097618771177,0.009931483781656425,None,1483.2097618771177,1483.2097618771177,1489.25072631296,None,1489.25072631296,None,space,0.008326506943376444,None,48.10435204031546,NENA_035,001,2021_Mar_05_1124,test7,3.2.4,100.64698362692121,
170,38,Tältet var lagom rymligt för familjen.  ,4,,0,,cor,1,no,173,199,,,,,,,,,,,,,0,88,88,88,,,,,,,,,,,,,,,,,,,,,,,,,,,,,,,,,,,,,,,,,,,,,,,,,,,,,,,,,,,,,,,,,,,,,,,,,,,,,,,,,,,,,,,,,,,,,1541.8504039063419,None,1542.3511855467414,None,1542.3511855467414,None,left,1,1.9801032907153058,1542.3511855467414,None,,,,,,,,,,,,,1544.341747808232,None,,,,,,,,,,,,,,,,,,,,,,,,,,,,,,,,,1537.3608715370638,None,1537.3608715370638,None,1537.8602967731758,None,1541.361004643656,1541.361004643656,0.009933087475474167,None,1541.361004643656,1541.361004643656,1545.8419390968381,None,1545.8419390968381,None,None,0.008217776497076557,None,,NENA_035,001,2021_Mar_05_1124,test7,3.2.4,100.64698362692121,
130,19,Fåglar äter ofta frön och ibland daggmaskar.,3,,4,,cor,1,no,131,132,,,,,,,,,,,,,0,89,89,89,,,,,,,,,,,,,,,,,,,,,,,,,,,,,,,,,,,,,,,,,,,,,,,,,,,,,,,,,,,,,,,,,,,,,,,,,,,,,,,,,,,,,,,,,,,,,1550.8421089600943,None,1551.3429409564815,None,1551.3429409564815,None,left,1,2.460182846762109,1551.3429409564815,None,,,,,,,,,,,,,1553.8133611435233,None,,,,,,,,,,,,,,,,,,,,,,,,,,,,,,,,,1545.851872569201,None,1545.851872569201,None,1546.3518934172216,None,1550.3527286209965,1550.3527286209965,0.009926031223585596,None,1550.3527286209965,1550.3527286209965,1555.3137317251064,None,1555.3137317251064,None,None,0.008664886353471957,None,,NENA_035,001,2021_Mar_05_1124,test7,3.2.4,100.64698362692121,
140,68,Kockar skär ofta grönsaker med vassa kniv.,3,,4,,inc,1,no,137,138,,,,,,,,,,,,,0,90,90,90,,,,,,,,,,,,,,,,,,,,,,,,,,,,,,,,,,,,,,,,,,,,,,,,,,,,,,,,,,,,,,,,,,,,,,,,,,,,,,,,,,,,,,,,,,,,,1560.3139586798652,None,1560.8146809835907,None,1560.8146809835907,None,right,1,2.5322945459656694,1560.8146809835907,None,,,,,,,,,,,,,1563.3649051479215,None,,,,,,,,,,,,,,,,,,,,,,,,,,,,,,,,,1555.3236664804244,None,1555.3236664804244,None,1555.823791247809,None,1559.8245597379182,1559.8245597379182,0.009929880089657672,None,1559.8245597379182,1559.8245597379182,1564.8655704884402,None,1564.8655704884402,None,None,0.007864322366003762,None,,NENA_035,001,2021_Mar_05_1124,test7,3.2.4,100.64698362692121,
150,81,Politiken kräver skatter men ekonomin inte kan klara av dem. ,6,,7,,inc,1,no,157,158,,,,,,,,,,,,,0,91,91,91,,,,,,,,,,,,,,,,,,,,,,,,,,,,,,,,,,,,,,,,,,,,,,,,,,,,,,,,,,,,,,,,,,,,,,,,,,,,,,,,,,,,,,,,,,,,,1571.366053713481,None,1571.8668776913992,None,1571.8668776913992,None,right,1,2.056043648699415,1571.8668776913992,None,,,,,,,,,,,,,1573.9372147429503,None,,,,,,,,,,,,,,,,,,,,,,,,,,,,,,,,,1564.8755206392198,None,1564.8755206392198,None,1565.3756328977915,None,1570.8766826758083,1570.8766826758083,0.009928597132784489,None,1570.8766826758083,1570.8766826758083,1575.4375933430026,None,1575.4375933430026,None,None,0.008389051004996873,None,,NENA_035,001,2021_Mar_05_1124,test7,3.2.4,100.64698362692121,
140,20,Sälar äter gärna fisk från rent vattnet.,3,,4,,inc,1,no,131,132,,,,,,,,,,,,,0,92,92,92,,,,,,,,,,,,,,,,,,,,,,,,,,,,,,,,,,,,,,,,,,,,,,,,,,,,,,,,,,,,,,,,,,,,,,,,,,,,,,,,,,,,,,,,,,,,,1580.4378228636715,None,1580.9385246401152,None,1580.9385246401152,None,right,1,1.5363836446313144,1580.9385246401152,None,,,,,,,,,,,,,1582.488813593679,None,,,,,,,,,,,,,,,,,,,,,,,,,,,,,,,,,1575.4475543989001,None,1575.4475543989001,None,1575.9476432435413,None,1579.9484101299568,1579.9484101299568,0.009932125261002511,None,1579.9484101299568,1579.9484101299568,1583.9892326068173,None,1583.9892326068173,None,None,0.008776824186497834,None,,NENA_035,001,2021_Mar_05_1124,test7,3.2.4,100.64698362692121,
170,63,Strejken är särskilt viktig för facket.  ,4,,0,,cor,1,no,171,199,,,,,,,,,,,,,0,93,93,93,,,,,,,,,,,,,,,,,,,,,,,,,,,,,,,,,,,,,,,,,,,,,,,,,,,,,,,,,,,,,,,,,,,,,,,,,,,,,,,,,,,,,,,,,,,,,1588.489358528861,None,1588.9900981524806,None,1588.9900981524806,None,left,1,2.3008112766628983,1588.9900981524806,None,,,,,,,,,,,,,1591.300286548023,None,,,,,,,,,,,,,,,,,,,,,,,,,,,,,,,,,1583.999192059021,None,1583.999192059021,None,1584.499288922132,None,1587.9999666431668,1587.9999666431668,0.009934370430528361,None,1587.9999666431668,1587.9999666431668,1592.800920456142,None,1592.800920456142,None,None,0.007833852182557166,None,,NENA_035,001,2021_Mar_05_1124,test7,3.2.4,100.64698362692121,
180,25,Pennan som hade använts flera gånger tidigare på de många lektionerna var återigen vässad och matematikboken låg på bordet.,14,,0,,cor,1,no,181,199,,,,,,,,,,,,,0,94,94,94,,,,,,,,,,,,,,,,,,,,,,,,,,,,,,,,,,,,,,,,,,,,,,,,,,,,,,,,,,,,,,,,,,,,,,,,,,,,,,,,,,,,,,,,,,,,,1603.8022972594154,None,1604.3031068040882,None,1604.3031068040882,None,left,1,2.6435492054979477,1604.3031068040882,None,,,,,,,,,,,,,1606.9633485384893,None,,,,,,,,,,,,,,,,,,,,,,,,,,,,,,,,,1592.8108641921453,None,1592.8108641921453,None,1593.3109924876562,None,1603.3128553384722,1603.3128553384722,0.009933728953910759,None,1603.3128553384722,1603.3128553384722,1608.463930166187,None,1608.463930166187,None,None,0.008050030117374263,None,,NENA_035,001,2021_Mar_05_1124,test7,3.2.4,100.64698362692121,
140,4,Musiker läser ofta noter av välkända kompositör.,3,,4,,inc,1,no,131,132,,,,,,,,,,,,,0,95,95,95,,,,,,,,,,,,,,,,,,,,,,,,,,,,,,,,,,,,,,,,,,,,,,,,,,,,,,,,,,,,,,,,,,,,,,,,,,,,,,,,,,,,,,,,,,,,,1613.4641378766191,None,1613.964958005672,None,1613.964958005672,None,left,0,3.4859131529201477,1613.964958005672,None,,,,,,,,,,,,,1617.4652816310982,None,,,,,,,,,,,,,,,,,,,,,,,,,,,,,,,,,1608.4738536956484,None,1608.4738536956484,None,1608.9738373379705,None,1612.9747719707666,1612.9747719707666,0.009930842304129328,None,1612.9747719707666,1612.9747719707666,1618.9659678196374,None,1618.9659678196374,None,None,0.00873160001810902,None,,NENA_035,001,2021_Mar_05_1124,test7,3.2.4,100.64698362692121,
160,21,Praktikanten i blomsteraffären vattnade alla gamla orkidéer som den gamla och snart pensionerade ägaren inte ville bry sig om.,15,,16,,cor,1,no,161,162,,,,,,,,,,,,,0,96,96,96,,,,,,,,,,,,,,,,,,,,,,,,,,,,,,,,,,,,,,,,,,,,,,,,,,,,,,,,,,,,,,,,,,,,,,,,,,,,,,,,,,,,,,,,,,,,,1629.9573683639946,None,1630.4581317222837,None,1630.4581317222837,None,left,1,1.4164712832944133,1630.4581317222837,None,,,,,,,,,,,,,1631.8883546806373,None,,,,,,,,,,,,,,,,,,,,,,,,,,,,,,,,,1618.975909951947,None,1618.975909951947,None,1619.4759407428692,None,1629.4679181038437,1629.4679181038437,0.009931163044711866,None,1629.4679181038437,1629.4679181038437,1633.3887271866522,None,1633.3887271866522,None,None,0.008785163394350093,None,,NENA_035,001,2021_Mar_05_1124,test7,3.2.4,100.64698362692121,
170,85,Mönstret var mycket smakfull i sammanhanget.  ,4,,0,,inc,1,no,174,199,,,,,,,,,,,,,0,97,97,97,,,,,,,,,,,,,,,,,,,,,,,,,,,,,,,,,,,,,,,,,,,,,,,,,,,,,,,,,,,,,,,,,,,,,,,,,,,,,,,,,,,,,,,,,,,,,1637.8888617686434,None,1638.3895170379647,None,1638.3895170379647,None,right,1,1.0690771896361184,1638.3895170379647,None,,,,,,,,,,,,,1639.4698130285378,None,,,,,,,,,,,,,,,,,,,,,,,,,,,,,,,,,1633.3986927328933,None,1633.3986927328933,None,1633.8987588050813,None,1637.3994737318153,1637.3994737318153,0.009932125259183522,None,1637.3994737318153,1637.3994737318153,1640.9701826479038,None,1640.9701826479038,None,None,0.00765744585532957,None,,NENA_035,001,2021_Mar_05_1124,test7,3.2.4,100.64698362692121,
170,73,Badkaret är helt fullt men kranen rinner fortfarande. ,4,,0,,cor,1,no,173,199,,,,,,,,,,,,,0,98,98,98,,,,,,,,,,,,,,,,,,,,,,,,,,,,,,,,,,,,,,,,,,,,,,,,,,,,,,,,,,,,,,,,,,,,,,,,,,,,,,,,,,,,,,,,,,,,,1646.470495239916,None,1646.9713035016339,None,1646.9713035016339,None,left,1,3.6711542298071436,1646.9713035016339,None,,,,,,,,,,,,,1650.6520577637712,None,,,,,,,,,,,,,,,,,,,,,,,,,,,,,,,,,1640.9801504393163,None,1640.9801504393163,None,1641.4802540379405,None,1645.981093732059,1645.981093732059,0.009931163043802371,None,1645.981093732059,1645.981093732059,1652.1522933143285,None,1652.1522933143285,None,None,0.008213286155296373,None,,NENA_035,001,2021_Mar_05_1124,test7,3.2.4,100.64698362692121,
160,50,De giriga inbrottstjuvarna stal en mängd värdelös båtutrustning som den fullkomligt ovetande ägaren till den slitna båten inte hade tänkt spara ändå.,18,,19,,cor,1,no,161,162,,,,,,,,,,,,,0,99,99,99,,,,,,,,,,,,,,,,,,,,,,,,,,,,,,,,,,,,,,,,,,,,,,,,,,,,,,,,,,,,,,,,,,,,,,,,,,,,,,,,,,,,,,,,,,,,,1664.6540113836609,None,1665.154804249917,None,1665.154804249917,None,left,1,3.047554334752931,1665.154804249917,None,,,,,,,,,,,,,1668.2153388829693,None,,,,,,,,,,,,,,,,,,,,,,,,,,,,,,,,,1652.1622700864264,None,1652.1622700864264,None,1652.6623707984027,None,1664.1646066684161,1664.1646066684161,0.009929238612130575,None,1664.1646066684161,1664.1646066684161,1669.7157226148418,None,1669.7157226148418,None,None,0.007763610388792586,None,,NENA_035,001,2021_Mar_05_1124,test7,3.2.4,100.64698362692121,
150,86,Sjön lagrar vatten men bönderna inte får använda det.  ,6,,7,,inc,1,no,157,158,,,,,,,,,,,,,0,100,100,100,,,,,,,,,,,,,,,,,,,,,,,,,,,,,,,,,,,,,,,,,,,,,,,,,,,,,,,,,,,,,,,,,,,,,,,,,,,,,,,,,,,,,,,,,,,,,1675.7161339943978,None,1676.216833846409,None,1676.216833846409,None,right,1,1.3455536945584754,1676.216833846409,None,,,,,,,,,,,,,1677.5774532827936,None,,,,,,,,,,,,,,,,,,,,,,,,,,,,,,,,,1669.7257006698946,None,1669.7257006698946,None,1670.2257468562793,None,1675.2267356939283,1675.2267356939283,0.00993020082842122,None,1675.2267356939283,1675.2267356939283,1679.0775037670771,None,1679.0775037670771,None,None,0.008068312228715513,None,,NENA_035,001,2021_Mar_05_1124,test7,3.2.4,100.64698362692121,
150,43,Etanol innehåller energi som kroppen inte kan absorbera.  ,6,,7,,cor,1,no,151,152,,,,,,,,,,,,,0,101,101,101,,,,,,,,,,,,,,,,,,,,,,,,,,,,,,,,,,,,,,,,,,,,,,,,,,,,,,,,,,,,,,,,,,,,,,,,,,,,,,,,,,,,,,,,,,,,,1684.5778080198806,None,1685.078632960015,None,1685.078632960015,None,left,1,1.5557941139304603,1685.078632960015,None,,,,,,,,,,,,,1686.6487230427074,None,,,,,,,,,,,,,,,,,,,,,,,,,,,,,,,,,1679.0874446164316,None,1679.0874446164316,None,1679.5875427624978,None,1684.0884398688568,1684.0884398688568,0.009927955655257392,None,1684.0884398688568,1684.0884398688568,1688.14925367294,None,1688.14925367294,None,None,0.008365316335584794,None,,NENA_035,001,2021_Mar_05_1124,test7,3.2.4,100.64698362692121,
140,9,Meteorologer förutspår ofta väder utifrån datormodell.,3,,4,,inc,1,no,131,132,,,,,,,,,,,,,0,102,102,102,,,,,,,,,,,,,,,,,,,,,,,,,,,,,,,,,,,,,,,,,,,,,,,,,,,,,,,,,,,,,,,,,,,,,,,,,,,,,,,,,,,,,,,,,,,,,1692.6493943489677,None,1693.1501147282606,None,1693.1501147282606,None,right,1,3.012125208721045,1693.1501147282606,None,,,,,,,,,,,,,1696.180715452745,None,,,,,,,,,,,,,,,,,,,,,,,,,,,,,,,,,1688.159203182242,None,1688.159203182242,None,1688.6593058186509,None,1692.1599928411106,1692.1599928411106,0.009930842305948318,None,1692.1599928411106,1692.1599928411106,1697.6810962979687,None,1697.6810962979687,None,None,0.007720310653894558,None,,NENA_035,001,2021_Mar_05_1124,test7,3.2.4,100.64698362692121,
180,8,Bordet som visserligen är alldeles bedårande med sina röda vackra blommor på benen är för låg för de vuxna. ,16,,0,,inc,1,no,182,199,,,,,,,,,,,,,0,103,103,103,,,,,,,,,,,,,,,,,,,,,,,,,,,,,,,,,,,,,,,,,,,,,,,,,,,,,,,,,,,,,,,,,,,,,,,,,,,,,,,,,,,,,,,,,,,,,1708.6824528947,None,1709.1832524964702,None,1709.1832524964702,None,right,1,0.8508381866458876,1709.1832524964702,None,,,,,,,,,,,,,1710.053098304511,None,,,,,,,,,,,,,,,,,,,,,,,,,,,,,,,,,1697.6910461280095,None,1697.6910461280095,None,1698.1911391422545,None,1708.1930834607201,1708.1930834607201,0.009929880089657672,None,1708.1930834607201,1708.1930834607201,1711.553735099278,None,1711.553735099278,None,None,0.007680539045395562,None,,NENA_035,001,2021_Mar_05_1124,test7,3.2.4,100.64698362692121,
150,105,Säljaren gav en ursäkt men pojken inte kunde godta den.  ,6,,7,,inc,1,no,157,158,,,,,,,,,,,,,0,104,104,104,,,,,,,,,,,,,,,,,,,,,,,,,,,,,,,,,,,,,,,,,,,,,,,,,,,,,,,,,,,,,,,,,,,,,,,,,,,,,,,,,,,,,,,,,,,,,1718.0542734913888,None,1718.555046151103,None,1718.555046151103,None,right,1,0.8710537102742819,1718.555046151103,None,,,,,,,,,,,,,1719.4355408072743,None,,,,,,,,,,,,,,,,,,,,,,,,,,,,,,,,,1711.5636990418252,None,1711.5636990418252,None,1712.0638016782332,None,1717.564855305116,1717.564855305116,0.009929880087838683,None,1717.564855305116,1717.564855305116,1720.9355457466506,None,1720.9355457466506,None,None,0.008022125844036054,None,,NENA_035,001,2021_Mar_05_1124,test7,3.2.4,100.64698362692121,
140,52,Skådespelare spelar ofta roller skriven för dem.,3,,4,,inc,1,no,135,136,,,,,,,,,,,,,0,105,105,105,,,,,,,,,,,,,,,,,,,,,,,,,,,,,,,,,,,,,,,,,,,,,,,,,,,,,,,,,,,,,,,,,,,,,,,,,,,,,,,,,,,,,,,,,,,,,1725.935758588903,None,1726.4364879488821,None,1726.4364879488821,None,right,1,0.8134204801972373,1726.4364879488821,None,,,,,,,,,,,,,1727.2666391258972,None,,,,,,,,,,,,,,,,,,,,,,,,,,,,,,,,,1720.9454917278263,None,1720.9454917278263,None,1721.445609438957,None,1725.446378249805,1725.446378249805,0.00993244599794707,None,1725.446378249805,1725.446378249805,1728.7670889299577,None,1728.7670889299577,None,None,0.008170627897925442,None,,NENA_035,001,2021_Mar_05_1124,test7,3.2.4,100.64698362692121,
170,41,Experimentet var för enkelt för forskningsfrågan.  ,4,,0,,cor,1,no,173,199,,,,,,,,,,,,,0,106,106,106,,,,,,,,,,,,,,,,,,,,,,,,,,,,,,,,,,,,,,,,,,,,,,,,,,,,,,,,,,,,,,,,,,,,,,,,,,,,,,,,,,,,,,,,,,,,,1733.2671693070952,None,1733.7679766065967,None,1733.7679766065967,None,left,1,1.6500720700032616,1733.7679766065967,None,,,,,,,,,,,,,1735.4280307088138,None,,,,,,,,,,,,,,,,,,,,,,,,,,,,,,,,,1728.7770243267532,None,1728.7770243267532,None,1729.27708815377,None,1732.77779089243,1732.77779089243,0.009930521567184769,None,1732.77779089243,1732.77779089243,1736.928579621156,None,1736.928579621156,None,None,0.008246963725468959,None,,NENA_035,001,2021_Mar_05_1124,test7,3.2.4,100.64698362692121,
