trig_exp,trig_item,sentence,trig_w1,trig1,trig_w2,trig2,gram,task,paus,trig_1,trig_2,prac_trials.thisRepN,prac_trials.thisTrialN,prac_trials.thisN,prac_trials.thisIndex,trials_2.thisRepN,trials_2.thisTrialN,trials_2.thisN,trials_2.thisIndex,trials.thisRepN,trials.thisTrialN,trials.thisN,trials.thisIndex,exp_trials.thisRepN,exp_trials.thisTrialN,exp_trials.thisN,exp_trials.thisIndex,grating_1.started,grating_1.stopped,text_1.started,text_1.stopped,key_resp_1.keys,key_resp_1.rt,key_resp_1.started,key_resp_1.stopped,grating_2.started,grating_2.stopped,text_2.started,text_2.stopped,key_resp_2.keys,key_resp_2.rt,key_resp_2.started,key_resp_2.stopped,grating_3.started,grating_3.stopped,text_3.started,text_3.stopped,key_resp_3.keys,key_resp_3.rt,key_resp_3.started,key_resp_3.stopped,grating_4.started,grating_4.stopped,text_4.started,text_4.stopped,key_resp_4.keys,key_resp_4.rt,key_resp_4.started,key_resp_4.stopped,grating_5.started,grating_5.stopped,text_5.started,text_5.stopped,key_resp_5.keys,key_resp_5.rt,key_resp_5.started,key_resp_5.stopped,grating_6.started,grating_6.stopped,text_6.started,text_6.stopped,key_resp_6.keys,key_resp_6.rt,key_resp_6.started,key_resp_6.stopped,grating_7.started,grating_7.stopped,text_7.started,text_7.stopped,key_resp_7.keys,key_resp_7.rt,key_resp_7.started,key_resp_7.stopped,grating_8.started,grating_8.stopped,text_8.started,text_8.stopped,key_resp_8.keys,key_resp_8.rt,key_resp_8.started,key_resp_8.stopped,grating_9.started,grating_9.stopped,text_9.started,text_9.stopped,key_resp_9.keys,key_resp_9.rt,key_resp_9.started,key_resp_9.stopped,grating.started,grating.stopped,text.started,text.stopped,key_resp.keys,key_resp.rt,key_resp.started,key_resp.stopped,grating_14.started,grating_14.stopped,text_fix_4.started,text_fix_4.stopped,grating_16.started,grating_16.stopped,grating_40.started,grating_40.stopped,ISI_4.started,ISI_4.stopped,text_19.started,text_19.stopped,grating_24.started,grating_24.stopped,grating_35.started,grating_35.stopped,prompt.started,prompt.stopped,Button_Press.keys,Button_Press.corr,Button_Press.rt,Button_Press.started,Button_Press.stopped,grating_33.started,grating_33.stopped,grating_34.started,grating_34.stopped,Correct_Incorrect.started,Correct_Incorrect.stopped,Continue_text.started,Continue_text.stopped,Press_Bar.keys,Press_Bar.rt,Press_Bar.started,Press_Bar.stopped,grating_26.started,grating_26.stopped,grating_27.started,grating_27.stopped,text_10.started,text_10.stopped,key_resp_11.keys,key_resp_11.rt,key_resp_11.started,key_resp_11.stopped,grating_28.started,grating_28.stopped,text_11.started,text_11.stopped,key_resp_12.keys,key_resp_12.rt,key_resp_12.started,key_resp_12.stopped,grating_29.started,grating_29.stopped,text_12.started,text_12.stopped,key_resp_13.keys,key_resp_13.rt,key_resp_13.started,key_resp_13.stopped,grating_36.started,grating_36.stopped,text_14.started,text_14.stopped,key_resp_14.keys,key_resp_14.rt,key_resp_14.started,key_resp_14.stopped,grating_10.started,grating_10.stopped,text_fix.started,text_fix.stopped,grating_11.started,grating_11.stopped,grating_37.started,grating_37.stopped,ISI_2.started,ISI_2.stopped,text_15.started,text_15.stopped,grating_38.started,grating_38.stopped,text_fix_3.started,text_fix_3.stopped,key_resp_16.keys,key_resp_16.started,key_resp_16.stopped,key_resp_16.rt,participant,session,date,expName,psychopyVersion,frameRate,
,,,,,,,,,,,,,,,,,,,,,,,,,,,,10.370134760307337,None,10.370134760307337,None,space,102.3229737843476,10.370134760307337,None,,,,,,,,,,,,,,,,,,,,,,,,,,,,,,,,,,,,,,,,,,,,,,,,,,,,,,,,,,,,,,,,,,,,,,,,,,,,,,,,,,,,,,,,,,,,,,,,,,,,,,,,,,,,,,,,,,,,,,,,,,,,,,,,,,,,,,,,,,,,,,,,,,,,,,,,,,,,,,,,,,NENA_031,001,2021_Feb_28_1026,test7,3.2.4,99.99140502215518,
,,,,,,,,,,,,,,,,,,,,,,,,,,,,,,,,,,,,112.70918253453056,None,112.70918253453056,None,space,100.35018467961072,112.70918253453056,None,,,,,,,,,,,,,,,,,,,,,,,,,,,,,,,,,,,,,,,,,,,,,,,,,,,,,,,,,,,,,,,,,,,,,,,,,,,,,,,,,,,,,,,,,,,,,,,,,,,,,,,,,,,,,,,,,,,,,,,,,,,,,,,,,,,,,,,,,,,,,,,,,,,,,,,,,,NENA_031,001,2021_Feb_28_1026,test7,3.2.4,99.99140502215518,
,,,,,,,,,,,,,,,,,,,,,,,,,,,,,,,,,,,,,,,,,,,,213.07756864385283,None,213.07756864385283,None,space,15.005493560910509,213.07756864385283,None,,,,,,,,,,,,,,,,,,,,,,,,,,,,,,,,,,,,,,,,,,,,,,,,,,,,,,,,,,,,,,,,,,,,,,,,,,,,,,,,,,,,,,,,,,,,,,,,,,,,,,,,,,,,,,,,,,,,,,,,,,,,,,,,,,,,,,,,,,,,,,,,,,NENA_031,001,2021_Feb_28_1026,test7,3.2.4,99.99140502215518,
,,,,,,,,,,,,,,,,,,,,,,,,,,,,,,,,,,,,,,,,,,,,,,,,,,,,228.1003148983009,None,228.1003148983009,None,space,7.798679980191082,228.1003148983009,None,,,,,,,,,,,,,,,,,,,,,,,,,,,,,,,,,,,,,,,,,,,,,,,,,,,,,,,,,,,,,,,,,,,,,,,,,,,,,,,,,,,,,,,,,,,,,,,,,,,,,,,,,,,,,,,,,,,,,,,,,,,,,,,,,,,,,,,,,,NENA_031,001,2021_Feb_28_1026,test7,3.2.4,99.99140502215518,
,,,,,,,,,,,,,,,,,,,,,,,,,,,,,,,,,,,,,,,,,,,,,,,,,,,,,,,,,,,,235.91144904536213,None,235.91144904536213,None,space,14.619334524759324,235.91144904536213,None,,,,,,,,,,,,,,,,,,,,,,,,,,,,,,,,,,,,,,,,,,,,,,,,,,,,,,,,,,,,,,,,,,,,,,,,,,,,,,,,,,,,,,,,,,,,,,,,,,,,,,,,,,,,,,,,,,,,,,,,,,,,,,,,,,NENA_031,001,2021_Feb_28_1026,test7,3.2.4,99.99140502215518,
,,,,,,,,,,,,,,,,,,,,,,,,,,,,,,,,,,,,,,,,,,,,,,,,,,,,,,,,,,,,,,,,,,,,250.54421886746968,None,250.54421886746968,None,space,14.394312137407724,250.54421886746968,None,,,,,,,,,,,,,,,,,,,,,,,,,,,,,,,,,,,,,,,,,,,,,,,,,,,,,,,,,,,,,,,,,,,,,,,,,,,,,,,,,,,,,,,,,,,,,,,,,,,,,,,,,,,,,,,,,,,,,,,,,,NENA_031,001,2021_Feb_28_1026,test7,3.2.4,99.99140502215518,
,,,,,,,,,,,,,,,,,,,,,,,,,,,,,,,,,,,,,,,,,,,,,,,,,,,,,,,,,,,,,,,,,,,,,,,,,,,,264.95700634286914,None,264.95700634286914,None,space,3.2455029648808704,264.95700634286914,None,,,,,,,,,,,,,,,,,,,,,,,,,,,,,,,,,,,,,,,,,,,,,,,,,,,,,,,,,,,,,,,,,,,,,,,,,,,,,,,,,,,,,,,,,,,,,,,,,,,,,,,,,,,,,,,,,,NENA_031,001,2021_Feb_28_1026,test7,3.2.4,99.99140502215518,
,,,,,,,,,,,,,,,,,,,,,,,,,,,,,,,,,,,,,,,,,,,,,,,,,,,,,,,,,,,,,,,,,,,,,,,,,,,,,,,,,,,,268.21756848989935,None,268.21756848989935,None,space,3.9849501191847594,268.21756848989935,None,,,,,,,,,,,,,,,,,,,,,,,,,,,,,,,,,,,,,,,,,,,,,,,,,,,,,,,,,,,,,,,,,,,,,,,,,,,,,,,,,,,,,,,,,,,,,,,,,,,,,,,,,,NENA_031,001,2021_Feb_28_1026,test7,3.2.4,99.99140502215518,
,,,,,,,,,,,,,,,,,,,,,,,,,,,,,,,,,,,,,,,,,,,,,,,,,,,,,,,,,,,,,,,,,,,,,,,,,,,,,,,,,,,,,,,,,,,,272.2183039368383,None,272.2183039368383,None,space,2.863999728016097,272.2183039368383,None,,,,,,,,,,,,,,,,,,,,,,,,,,,,,,,,,,,,,,,,,,,,,,,,,,,,,,,,,,,,,,,,,,,,,,,,,,,,,,,,,,,,,,,,,,,,,,,,,,NENA_031,001,2021_Feb_28_1026,test7,3.2.4,99.99140502215518,
,,,,,,,,,,,,,,,,,,,,,,,,,,,,,,,,,,,,,,,,,,,,,,,,,,,,,,,,,,,,,,,,,,,,,,,,,,,,,,,,,,,,,,,,,,,,,,,,,,,,275.0988247602818,None,275.0988247602818,None,space,2.3757014489547146,275.0988247602818,None,,,,,,,,,,,,,,,,,,,,,,,,,,,,,,,,,,,,,,,,,,,,,,,,,,,,,,,,,,,,,,,,,,,,,,,,,,,,,,,,,,,,,,,,,,NENA_031,001,2021_Feb_28_1026,test7,3.2.4,99.99140502215518,
199,1,Meningarna presenteras ord för ord.,99,99,99,99,cor,1,no,,,0,0,0,0,0,0,0,0,0,0,0,0,,,,,,,,,,,,,,,,,,,,,,,,,,,,,,,,,,,,,,,,,,,,,,,,,,,,,,,,,,,,,,,,,,,,,,,,,,,,,,,,,,,,,277.54891187209614,None,277.54891187209614,None,277.9993703958389,None,281.00995082480404,281.00995082480404,0.009885843752272194,None,281.00995082480404,281.00995082480404,281.4994178647212,None,282.00995627731027,None,282.00995627731027,None,left,1,0.4242694923905219,282.00995627731027,None,282.4505332551589,None,282.77996120381067,None,282.77996120381067,None,282.77996120381067,None,space,2.318279817514849,282.77996120381067,None,,,,,,,,,,,,,,,,,,,,,,,,,,,,,,,,,,,,,,,,,,,,,,,,,,,,,,,NENA_031,001,2021_Feb_28_1026,test7,3.2.4,99.99140502215518,
199,1,Meningarna presenteras ord för ord.,99,99,99,99,cor,1,no,,,0,0,0,0,0,0,0,0,,,,,,,,,,,,,,,,,,,,,,,,,,,,,,,,,,,,,,,,,,,,,,,,,,,,,,,,,,,,,,,,,,,,,,,,,,,,,,,,,,,,,,,,,,,,,,,,,,,,,,,,,,,,,,,,,,,,,,,,,,,,,,,,,,,,,,,,,,,,,,,,,,,,,,,,,,,,,,,,,,,,,,,,,,,,,,,,,,NENA_031,001,2021_Feb_28_1026,test7,3.2.4,99.99140502215518,
199,1,Meningarna presenteras ord för ord.,99,99,99,99,cor,1,no,,,0,0,0,0,,,,,,,,,,,,,,,,,,,,,,,,,,,,,,,,,,,,,,,,,,,,,,,,,,,,,,,,,,,,,,,,,,,,,,,,,,,,,,,,,,,,,,,,,,,,,,,,,,,,,,,,,,,,,,,,,,,,,,,,,,,,,,,,285.1116371889184,None,,,,,,,,,,,,,,,,,,,,,,,,,,,,,,,,,,,,,,,,,,,,,,,,,,,,,NENA_031,001,2021_Feb_28_1026,test7,3.2.4,99.99140502215518,
199,2,Läs meningen noggrant och ange ditt svar när du ser frågetecknet.,99,99,99,99,cor,1,no,,,0,1,1,1,0,0,0,0,0,0,0,0,,,,,,,,,,,,,,,,,,,,,,,,,,,,,,,,,,,,,,,,,,,,,,,,,,,,,,,,,,,,,,,,,,,,,,,,,,,,,,,,,,,,,286.61063168252804,None,286.61063168252804,None,287.1110492803973,None,293.1121028971411,293.1121028971411,0.009891937730571954,None,293.1121028971411,293.1121028971411,293.60161804741256,None,294.10232655255277,None,294.10232655255277,None,left,1,0.8198440454771116,294.10232655255277,None,294.9330425757389,None,295.2325388282625,None,295.2325388282625,None,295.2325388282625,None,space,4.089517010537747,295.2325388282625,None,,,,,,,,,,,,,,,,,,,,,,,,,,,,,,,,,,,,,,,,,,,,,,,,,,,,,,,NENA_031,001,2021_Feb_28_1026,test7,3.2.4,99.99140502215518,
199,2,Läs meningen noggrant och ange ditt svar när du ser frågetecknet.,99,99,99,99,cor,1,no,,,0,1,1,1,0,0,0,0,,,,,,,,,,,,,,,,,,,,,,,,,,,,,,,,,,,,,,,,,,,,,,,,,,,,,,,,,,,,,,,,,,,,,,,,,,,,,,,,,,,,,,,,,,,,,,,,,,,,,,,,,,,,,,,,,,,,,,,,,,,,,,,,,,,,,,,,,,,,,,,,,,,,,,,,,,,,,,,,,,,,,,,,,,,,,,,,,,NENA_031,001,2021_Feb_28_1026,test7,3.2.4,99.99140502215518,
199,2,Läs meningen noggrant och ange ditt svar när du ser frågetecknet.,99,99,99,99,cor,1,no,,,0,1,1,1,,,,,,,,,,,,,,,,,,,,,,,,,,,,,,,,,,,,,,,,,,,,,,,,,,,,,,,,,,,,,,,,,,,,,,,,,,,,,,,,,,,,,,,,,,,,,,,,,,,,,,,,,,,,,,,,,,,,,,,,,,,,,,,,299.3432959184456,None,,,,,,,,,,,,,,,,,,,,,,,,,,,,,,,,,,,,,,,,,,,,,,,,,,,,,NENA_031,001,2021_Feb_28_1026,test7,3.2.4,99.99140502215518,
199,3,I den här meningen finns det en misstag.,99,99,99,99,inc,1,no,,,0,2,2,2,0,0,0,0,0,0,0,0,,,,,,,,,,,,,,,,,,,,,,,,,,,,,,,,,,,,,,,,,,,,,,,,,,,,,,,,,,,,,,,,,,,,,,,,,,,,,,,,,,,,,300.84355924244755,None,300.84355924244755,None,301.34364487887706,None,305.84448360270835,305.84448360270835,0.009896107295389811,None,305.84448360270835,305.84448360270835,306.33395705733983,None,306.8346315644976,None,306.8346315644976,None,right,1,8.887161014448793,306.8346315644976,None,315.73684566711745,None,316.0363326183069,None,316.0363326183069,None,316.0363326183069,None,space,2.2213714529843855,316.0363326183069,None,,,,,,,,,,,,,,,,,,,,,,,,,,,,,,,,,,,,,,,,,,,,,,,,,,,,,,,NENA_031,001,2021_Feb_28_1026,test7,3.2.4,99.99140502215518,
199,3,I den här meningen finns det en misstag.,99,99,99,99,inc,1,no,,,0,2,2,2,0,0,0,0,,,,,,,,,,,,,,,,,,,,,,,,,,,,,,,,,,,,,,,,,,,,,,,,,,,,,,,,,,,,,,,,,,,,,,,,,,,,,,,,,,,,,,,,,,,,,,,,,,,,,,,,,,,,,,,,,,,,,,,,,,,,,,,,,,,,,,,,,,,,,,,,,,,,,,,,,,,,,,,,,,,,,,,,,,,,,,,,,,NENA_031,001,2021_Feb_28_1026,test7,3.2.4,99.99140502215518,
199,3,I den här meningen finns det en misstag.,99,99,99,99,inc,1,no,,,0,2,2,2,,,,,,,,,,,,,,,,,,,,,,,,,,,,,,,,,,,,,,,,,,,,,,,,,,,,,,,,,,,,,,,,,,,,,,,,,,,,,,,,,,,,,,,,,,,,,,,,,,,,,,,,,,,,,,,,,,,,,,,,,,,,,,,,318.2767519224899,None,,,,,,,,,,,,,,,,,,,,,,,,,,,,,,,,,,,,,,,,,,,,,,,,,,,,,NENA_031,001,2021_Feb_28_1026,test7,3.2.4,99.99140502215518,
199,4,I det här meningen finns det ett till misstag.,99,99,99,99,inc,1,no,,,0,3,3,3,0,0,0,0,0,0,0,0,,,,,,,,,,,,,,,,,,,,,,,,,,,,,,,,,,,,,,,,,,,,,,,,,,,,,,,,,,,,,,,,,,,,,,,,,,,,,,,,,,,,,319.7770373772546,None,319.7770373772546,None,320.27712141000575,None,325.2780220358245,325.2780220358245,0.009890975523376255,None,325.2780220358245,325.2780220358245,325.76749998075593,None,326.2682270885671,None,326.2682270885671,None,right,1,1.9972933115068372,326.2682270885671,None,328.2793867661885,None,328.578471514822,None,328.578471514822,None,328.578471514822,None,space,2.1990469659685914,328.578471514822,None,,,,,,,,,,,,,,,,,,,,,,,,,,,,,,,,,,,,,,,,,,,,,,,,,,,,,,,NENA_031,001,2021_Feb_28_1026,test7,3.2.4,99.99140502215518,
199,4,I det här meningen finns det ett till misstag.,99,99,99,99,inc,1,no,,,0,3,3,3,0,0,0,0,,,,,,,,,,,,,,,,,,,,,,,,,,,,,,,,,,,,,,,,,,,,,,,,,,,,,,,,,,,,,,,,,,,,,,,,,,,,,,,,,,,,,,,,,,,,,,,,,,,,,,,,,,,,,,,,,,,,,,,,,,,,,,,,,,,,,,,,,,,,,,,,,,,,,,,,,,,,,,,,,,,,,,,,,,,,,,,,,,NENA_031,001,2021_Feb_28_1026,test7,3.2.4,99.99140502215518,
199,4,I det här meningen finns det ett till misstag.,99,99,99,99,inc,1,no,,,0,3,3,3,,,,,,,,,,,,,,,,,,,,,,,,,,,,,,,,,,,,,,,,,,,,,,,,,,,,,,,,,,,,,,,,,,,,,,,,,,,,,,,,,,,,,,,,,,,,,,,,,,,,,,,,,,,,,,,,,,,,,,,,,,,,,,,,330.7990257332658,None,,,,,,,,,,,,,,,,,,,,,,,,,,,,,,,,,,,,,,,,,,,,,,,,,,,,,NENA_031,001,2021_Feb_28_1026,test7,3.2.4,99.99140502215518,
199,5,Ibland kan meningarna låta lite märkliga men ändå vara grammatiskt korrekta.,99,99,99,99,cor,1,no,,,0,4,4,4,0,0,0,0,0,0,0,0,,,,,,,,,,,,,,,,,,,,,,,,,,,,,,,,,,,,,,,,,,,,,,,,,,,,,,,,,,,,,,,,,,,,,,,,,,,,,,,,,,,,,332.2993131124449,None,332.2993131124449,None,332.7994077294734,None,338.80050624921387,338.80050624921387,0.009889371845929418,None,338.80050624921387,338.80050624921387,339.28994410218365,None,339.79066768190205,None,339.79066768190205,None,left,1,2.378655745402284,339.79066768190205,None,342.18192994362744,None,342.48108493337713,None,342.48108493337713,None,342.48108493337713,None,space,0.9202352788724966,342.48108493337713,None,,,,,,,,,,,,,,,,,,,,,,,,,,,,,,,,,,,,,,,,,,,,,,,,,,,,,,,NENA_031,001,2021_Feb_28_1026,test7,3.2.4,99.99140502215518,
199,5,Ibland kan meningarna låta lite märkliga men ändå vara grammatiskt korrekta.,99,99,99,99,cor,1,no,,,0,4,4,4,0,0,0,0,,,,,,,,,,,,,,,,,,,,,,,,,,,,,,,,,,,,,,,,,,,,,,,,,,,,,,,,,,,,,,,,,,,,,,,,,,,,,,,,,,,,,,,,,,,,,,,,,,,,,,,,,,,,,,,,,,,,,,,,,,,,,,,,,,,,,,,,,,,,,,,,,,,,,,,,,,,,,,,,,,,,,,,,,,,,,,,,,,NENA_031,001,2021_Feb_28_1026,test7,3.2.4,99.99140502215518,
199,5,Ibland kan meningarna låta lite märkliga men ändå vara grammatiskt korrekta.,99,99,99,99,cor,1,no,,,0,4,4,4,,,,,,,,,,,,,,,,,,,,,,,,,,,,,,,,,,,,,,,,,,,,,,,,,,,,,,,,,,,,,,,,,,,,,,,,,,,,,,,,,,,,,,,,,,,,,,,,,,,,,,,,,,,,,,,,,,,,,,,,,,,,,,,,343.42132738390046,None,,,,,,,,,,,,,,,,,,,,,,,,,,,,,,,,,,,,,,,,,,,,,,,,,,,,,NENA_031,001,2021_Feb_28_1026,test7,3.2.4,99.99140502215518,
199,6,De gröna idéerna missade bussen i morse.,99,99,99,99,cor,1,no,,,0,5,5,5,0,0,0,0,0,0,0,0,,,,,,,,,,,,,,,,,,,,,,,,,,,,,,,,,,,,,,,,,,,,,,,,,,,,,,,,,,,,,,,,,,,,,,,,,,,,,,,,,,,,,344.92161155572194,None,344.92161155572194,None,345.4217026446586,None,349.422352134432,349.422352134432,0.009890334052215621,None,349.422352134432,349.422352134432,349.91189871680035,None,350.41261010856215,None,350.41261010856215,None,left,1,0.09251749292434397,350.41261010856215,None,350.5228543423764,None,350.82247985138383,None,350.82247985138383,None,350.82247985138383,None,space,1.1786975693366912,350.82247985138383,None,,,,,,,,,,,,,,,,,,,,,,,,,,,,,,,,,,,,,,,,,,,,,,,,,,,,,,,NENA_031,001,2021_Feb_28_1026,test7,3.2.4,99.99140502215518,
199,6,De gröna idéerna missade bussen i morse.,99,99,99,99,cor,1,no,,,0,5,5,5,0,0,0,0,,,,,,,,,,,,,,,,,,,,,,,,,,,,,,,,,,,,,,,,,,,,,,,,,,,,,,,,,,,,,,,,,,,,,,,,,,,,,,,,,,,,,,,,,,,,,,,,,,,,,,,,,,,,,,,,,,,,,,,,,,,,,,,,,,,,,,,,,,,,,,,,,,,,,,,,,,,,,,,,,,,,,,,,,,,,,,,,,,NENA_031,001,2021_Feb_28_1026,test7,3.2.4,99.99140502215518,
199,6,De gröna idéerna missade bussen i morse.,99,99,99,99,cor,1,no,,,0,5,5,5,,,,,,,,,,,,,,,,,,,,,,,,,,,,,,,,,,,,,,,,,,,,,,,,,,,,,,,,,,,,,,,,,,,,,,,,,,,,,,,,,,,,,,,,,,,,,,,,,,,,,,,,,,,,,,,,,,,,,,,,,,,,,,,,352.02291528215756,None,,,,,,,,,,,,,,,,,,,,,,,,,,,,,,,,,,,,,,,,,,,,,,,,,,,,,NENA_031,001,2021_Feb_28_1026,test7,3.2.4,99.99140502215518,
199,7,Det bruna bordet är mer än hundra år gamla.,99,99,99,99,inc,1,no,,,0,6,6,6,0,0,0,0,0,0,0,0,,,,,,,,,,,,,,,,,,,,,,,,,,,,,,,,,,,,,,,,,,,,,,,,,,,,,,,,,,,,,,,,,,,,,,,,,,,,,,,,,,,,,353.5231972088295,None,353.5231972088295,None,354.0233027308723,None,359.0241837918147,359.0241837918147,0.009894824352159048,None,359.0241837918147,359.0241837918147,359.51363415347623,None,360.01435677098743,None,360.01435677098743,None,right,1,2.7625875929170434,360.01435677098743,None,362.79533246178744,None,363.09487586245814,None,363.09487586245814,None,363.09487586245814,None,space,8.761859202163578,363.09487586245814,None,,,,,,,,,,,,,,,,,,,,,,,,,,,,,,,,,,,,,,,,,,,,,,,,,,,,,,,NENA_031,001,2021_Feb_28_1026,test7,3.2.4,99.99140502215518,
199,7,Det bruna bordet är mer än hundra år gamla.,99,99,99,99,inc,1,no,,,0,6,6,6,0,0,0,0,,,,,,,,,,,,,,,,,,,,,,,,,,,,,,,,,,,,,,,,,,,,,,,,,,,,,,,,,,,,,,,,,,,,,,,,,,,,,,,,,,,,,,,,,,,,,,,,,,,,,,,,,,,,,,,,,,,,,,,,,,,,,,,,,,,,,,,,,,,,,,,,,,,,,,,,,,,,,,,,,,,,,,,,,,,,,,,,,,NENA_031,001,2021_Feb_28_1026,test7,3.2.4,99.99140502215518,
199,7,Det bruna bordet är mer än hundra år gamla.,99,99,99,99,inc,1,no,,,0,6,6,6,,,,,,,,,,,,,,,,,,,,,,,,,,,,,,,,,,,,,,,,,,,,,,,,,,,,,,,,,,,,,,,,,,,,,,,,,,,,,,,,,,,,,,,,,,,,,,,,,,,,,,,,,,,,,,,,,,,,,,,,,,,,,,,,371.8669257997226,None,,,,,,,,,,,,,,,,,,,,,,,,,,,,,,,,,,,,,,,,,,,,,,,,,,,,,NENA_031,001,2021_Feb_28_1026,test7,3.2.4,99.99140502215518,
199,8,På våren gilla alla att tillbringa tid i solen.,99,99,99,99,inc,1,no,,,0,7,7,7,0,0,0,0,0,0,0,0,,,,,,,,,,,,,,,,,,,,,,,,,,,,,,,,,,,,,,,,,,,,,,,,,,,,,,,,,,,,,,,,,,,,,,,,,,,,,,,,,,,,,373.3665142958316,None,373.3665142958316,None,373.866876727162,None,378.86781103022895,378.86781103022895,0.00989418288008892,None,378.86781103022895,378.86781103022895,379.3572864092739,None,379.8579936314718,None,379.8579936314718,None,left,0,0.11067626478961756,379.8579936314718,None,379.9880404075657,None,380.308102874048,None,380.308102874048,None,380.308102874048,None,space,2.34056806139688,380.308102874048,None,,,,,,,,,,,,,,,,,,,,,,,,,,,,,,,,,,,,,,,,,,,,,,,,,,,,,,,NENA_031,001,2021_Feb_28_1026,test7,3.2.4,99.99140502215518,
199,8,På våren gilla alla att tillbringa tid i solen.,99,99,99,99,inc,1,no,,,0,7,7,7,0,0,0,0,,,,,,,,,,,,,,,,,,,,,,,,,,,,,,,,,,,,,,,,,,,,,,,,,,,,,,,,,,,,,,,,,,,,,,,,,,,,,,,,,,,,,,,,,,,,,,,,,,,,,,,,,,,,,,,,,,,,,,,,,,,,,,,,,,,,,,,,,,,,,,,,,,,,,,,,,,,,,,,,,,,,,,,,,,,,,,,,,,NENA_031,001,2021_Feb_28_1026,test7,3.2.4,99.99140502215518,
199,8,På våren gilla alla att tillbringa tid i solen.,99,99,99,99,inc,1,no,,,0,7,7,7,,,,,,,,,,,,,,,,,,,,,,,,,,,,,,,,,,,,,,,,,,,,,,,,,,,,,,,,,,,,,,,,,,,,,,,,,,,,,,,,,,,,,,,,,,,,,,,,,,,,,,,,,,,,,,,,,,,,,,,,,,,,,,,,382.6685180599852,None,,,,,,,,,,,,,,,,,,,,,,,,,,,,,,,,,,,,,,,,,,,,,,,,,,,,,NENA_031,001,2021_Feb_28_1026,test7,3.2.4,99.99140502215518,
199,9,Tidningen avskedade dem journalist som publicerade falska fakta.,99,99,99,99,inc,1,no,,,0,8,8,8,0,0,0,0,0,0,0,0,,,,,,,,,,,,,,,,,,,,,,,,,,,,,,,,,,,,,,,,,,,,,,,,,,,,,,,,,,,,,,,,,,,,,,,,,,,,,,,,,,,,,384.168780742516,None,384.168780742516,None,384.6688256455127,None,389.16969451849855,389.16969451849855,0.009889371845019923,None,389.16969451849855,389.16969451849855,389.6591657279805,None,390.1598517816228,None,390.1598517816228,None,right,1,1.9046398266482356,390.1598517816228,None,392.08097421541606,None,392.4003201583664,None,392.4003201583664,None,392.4003201583664,None,space,1.1921248482922238,392.4003201583664,None,,,,,,,,,,,,,,,,,,,,,,,,,,,,,,,,,,,,,,,,,,,,,,,,,,,,,,,NENA_031,001,2021_Feb_28_1026,test7,3.2.4,99.99140502215518,
199,9,Tidningen avskedade dem journalist som publicerade falska fakta.,99,99,99,99,inc,1,no,,,0,8,8,8,0,0,0,0,,,,,,,,,,,,,,,,,,,,,,,,,,,,,,,,,,,,,,,,,,,,,,,,,,,,,,,,,,,,,,,,,,,,,,,,,,,,,,,,,,,,,,,,,,,,,,,,,,,,,,,,,,,,,,,,,,,,,,,,,,,,,,,,,,,,,,,,,,,,,,,,,,,,,,,,,,,,,,,,,,,,,,,,,,,,,,,,,,NENA_031,001,2021_Feb_28_1026,test7,3.2.4,99.99140502215518,
199,9,Tidningen avskedade dem journalist som publicerade falska fakta.,99,99,99,99,inc,1,no,,,0,8,8,8,,,,,,,,,,,,,,,,,,,,,,,,,,,,,,,,,,,,,,,,,,,,,,,,,,,,,,,,,,,,,,,,,,,,,,,,,,,,,,,,,,,,,,,,,,,,,,,,,,,,,,,,,,,,,,,,,,,,,,,,,,,,,,,,393.6115650233878,None,,,,,,,,,,,,,,,,,,,,,,,,,,,,,,,,,,,,,,,,,,,,,,,,,,,,,NENA_031,001,2021_Feb_28_1026,test7,3.2.4,99.99140502215518,
199,10,Bra jobbat!,99,99,99,99,cor,1,no,,,0,9,9,9,0,0,0,0,0,0,0,0,,,,,,,,,,,,,,,,,,,,,,,,,,,,,,,,,,,,,,,,,,,,,,,,,,,,,,,,,,,,,,,,,,,,,,,,,,,,,,,,,,,,,395.1107769757964,None,395.1107769757964,None,395.6108677439961,None,397.11113010579174,397.11113010579174,0.009895145088194113,None,397.11113010579174,397.11113010579174,397.6006195972077,None,398.1013441391324,None,398.1013441391324,None,right,0,1.38702470177941,398.1013441391324,None,399.50225316822707,None,399.82166582420086,None,399.82166582420086,None,399.82166582420086,None,space,1.7866754847600532,399.82166582420086,None,,,,,,,,,,,,,,,,,,,,,,,,,,,,,,,,,,,,,,,,,,,,,,,,,,,,,,,NENA_031,001,2021_Feb_28_1026,test7,3.2.4,99.99140502215518,
199,10,Bra jobbat!,99,99,99,99,cor,1,no,,,0,9,9,9,0,0,0,0,,,,,,,,,,,,,,,,,,,,,,,,,,,,,,,,,,,,,,,,,,,,,,,,,,,,,,,,,,,,,,,,,,,,,,,,,,,,,,,,,,,,,,,,,,,,,,,,,,,,,,,,,,,,,,,,,,,,,,,,,,,,,,,,,,,,,,,,,,,,,,,,,,,,,,,,,,,,,,,,,,,,,,,,,,,,,,,,,,NENA_031,001,2021_Feb_28_1026,test7,3.2.4,99.99140502215518,
199,10,Bra jobbat!,99,99,99,99,cor,1,no,,,0,9,9,9,,,,,,,,,,,,,,,,,,,,,,,,,,,,,,,,,,,,,,,,,,,,,,,,,,,,,,,,,,,,,,,,,,,,,,,,,,,,,,,,,,,,,,,,,,,,,,,,,,,,,,,,,,,,,,,,,,,,,,,,,,,,,,,,401.6319641340524,None,,,,,,,,,,,,,,,,,,,,,,,,,,,,,,,,,,,,,,,,,,,,,,,,,,,,,NENA_031,001,2021_Feb_28_1026,test7,3.2.4,99.99140502215518,
,,,,,,,,,,,,,,,,,,,,,,,,,,,,,,,,,,,,,,,,,,,,,,,,,,,,,,,,,,,,,,,,,,,,,,,,,,,,,,,,,,,,,,,,,,,,,,,,,,,,,,,,,,,,,,,,,,,,,,,,,,,,,,,,,,,,,,,,,,,,,,,,,403.1322518339666,None,403.1322518339666,None,space,73.5389713108334,403.1322518339666,None,,,,,,,,,,,,,,,,,,,,,,,,,,,,,,,,,,,,,,,,,,,,,NENA_031,001,2021_Feb_28_1026,test7,3.2.4,99.99140502215518,
,,,,,,,,,,,,,,,,,,,,,,,,,,,,,,,,,,,,,,,,,,,,,,,,,,,,,,,,,,,,,,,,,,,,,,,,,,,,,,,,,,,,,,,,,,,,,,,,,,,,,,,,,,,,,,,,,,,,,,,,,,,,,,,,,,,,,,,,,,,,,,,,,,,,,,,,,476.6855908208008,None,476.6855908208008,None,space,6.625649810509458,476.6855908208008,None,,,,,,,,,,,,,,,,,,,,,,,,,,,,,,,,,,,,,NENA_031,001,2021_Feb_28_1026,test7,3.2.4,99.99140502215518,
,,,,,,,,,,,,,,,,,,,,,,,,,,,,,,,,,,,,,,,,,,,,,,,,,,,,,,,,,,,,,,,,,,,,,,,,,,,,,,,,,,,,,,,,,,,,,,,,,,,,,,,,,,,,,,,,,,,,,,,,,,,,,,,,,,,,,,,,,,,,,,,,,,,,,,,,,,,,,,,,,483.32681138688713,None,483.32681138688713,None,space,3.7603029925921874,483.32681138688713,None,,,,,,,,,,,,,,,,,,,,,,,,,,,,,NENA_031,001,2021_Feb_28_1026,test7,3.2.4,99.99140502215518,
,,,,,,,,,,,,,,,,,,,,,,,,,,,,,,,,,,,,,,,,,,,,,,,,,,,,,,,,,,,,,,,,,,,,,,,,,,,,,,,,,,,,,,,,,,,,,,,,,,,,,,,,,,,,,,,,,,,,,,,,,,,,,,,,,,,,,,,,,,,,,,,,,,,,,,,,,,,,,,,,,,,,,,,,,487.09751872454945,None,487.09751872454945,None,space,1.0134035445144036,487.09751872454945,None,,,,,,,,,,,,,,,,,,,,,NENA_031,001,2021_Feb_28_1026,test7,3.2.4,99.99140502215518,
170,108,Hallonet lyser helt röd bland de gröna bladen. ,4,,0,,inc,1,no,174,199,,,,,,,,,,,,,0,0,0,0,,,,,,,,,,,,,,,,,,,,,,,,,,,,,,,,,,,,,,,,,,,,,,,,,,,,,,,,,,,,,,,,,,,,,,,,,,,,,,,,,,,,,,,,,,,,,493.6281210790057,None,494.12886037477347,None,494.12886037477347,None,right,1,4.5579999178917205,494.12886037477347,None,,,,,,,,,,,,,498.7096710149872,None,,,,,,,,,,,,,,,,,,,,,,,,,,,,,,,,,488.2171634007218,None,488.2171634007218,None,488.6376677768394,None,493.13866783072353,493.13866783072353,0.009855373861682892,None,493.13866783072353,493.13866783072353,500.2099530699537,None,500.2099530699537,None,None,0.006701579814944125,None,,NENA_031,001,2021_Feb_28_1026,test7,3.2.4,99.99140502215518,
170,67,Valet är absolut nödvändigt för landets framtid.  ,4,,0,,cor,1,no,173,199,,,,,,,,,,,,,0,1,1,1,,,,,,,,,,,,,,,,,,,,,,,,,,,,,,,,,,,,,,,,,,,,,,,,,,,,,,,,,,,,,,,,,,,,,,,,,,,,,,,,,,,,,,,,,,,,,505.21026694190095,None,505.7109562029,None,505.7109562029,None,left,1,1.855782479620757,505.7109562029,None,,,,,,,,,,,,,507.58169651219214,None,,,,,,,,,,,,,,,,,,,,,,,,,,,,,,,,,500.2208541063146,None,500.2208541063146,None,500.7200384754533,None,504.7207777712201,504.7207777712201,0.009869165496638743,None,504.7207777712201,504.7207777712201,509.0815567997246,None,509.0815567997246,None,None,0.007868416257224453,None,,NENA_031,001,2021_Feb_28_1026,test7,3.2.4,99.99140502215518,
180,17,Skjortan som reseledaren inför denna speciella dag hade strukit kvällen innan var otroligt skrynklig på morgonen.  ,14,,0,,cor,1,no,181,199,,,,,,,,,,,,,0,2,2,2,,,,,,,,,,,,,,,,,,,,,,,,,,,,,,,,,,,,,,,,,,,,,,,,,,,,,,,,,,,,,,,,,,,,,,,,,,,,,,,,,,,,,,,,,,,,,518.5826827744404,None,519.0834034675381,None,519.0834034675381,None,right,0,0.0030771382162129157,519.0834034675381,None,,,,,,,,,,,,,519.1030834887833,None,,,,,,,,,,,,,,,,,,,,,,,,,,,,,,,,,509.0915947363428,None,509.0915947363428,None,509.59167267511566,None,518.093219262616,518.093219262616,0.009864354460660252,None,518.093219262616,518.093219262616,520.6036477911579,None,520.6036477911579,None,None,0.008631446466097259,None,,NENA_031,001,2021_Feb_28_1026,test7,3.2.4,99.99140502215518,
130,15,Frisörer klipper ofta hår med en sax.,3,,4,,cor,1,no,131,132,,,,,,,,,,,,,0,3,3,3,,,,,,,,,,,,,,,,,,,,,,,,,,,,,,,,,,,,,,,,,,,,,,,,,,,,,,,,,,,,,,,,,,,,,,,,,,,,,,,,,,,,,,,,,,,,,525.6039709644392,None,526.1046849220866,None,526.1046849220866,None,left,1,3.989740306726162,526.1046849220866,None,,,,,,,,,,,,,530.1055970943908,None,,,,,,,,,,,,,,,,,,,,,,,,,,,,,,,,,520.613670653197,None,520.613670653197,None,521.1137835521604,None,525.1144952646582,525.1144952646582,0.009869165496638743,None,525.1144952646582,525.1144952646582,531.6056786895509,None,531.6056786895509,None,None,0.00808010181390273,None,,NENA_031,001,2021_Feb_28_1026,test7,3.2.4,99.99140502215518,
150,27,Tjejen har vänner men föräldrarna borde inte veta om dem. ,6,,7,,cor,1,no,155,156,,,,,,,,,,,,,0,4,4,4,,,,,,,,,,,,,,,,,,,,,,,,,,,,,,,,,,,,,,,,,,,,,,,,,,,,,,,,,,,,,,,,,,,,,,,,,,,,,,,,,,,,,,,,,,,,,538.1062417731291,None,538.6069756163897,None,538.6069756163897,None,right,0,1.3992447315958998,538.6069756163897,None,,,,,,,,,,,,,540.0169890488005,None,,,,,,,,,,,,,,,,,,,,,,,,,,,,,,,,,531.6156977027631,None,531.6156977027631,None,532.1157791696278,None,537.6168250887158,537.6168250887158,0.009869486231764313,None,537.6168250887158,537.6168250887158,541.517474129459,None,541.517474129459,None,None,0.008582373906392604,None,,NENA_031,001,2021_Feb_28_1026,test7,3.2.4,99.99140502215518,
160,30,Den torra sommaren orsakade en kraftig aspblomning som de flesta invånarna i de södra stadsdelarna hade inte upplevt förut.,16,,17,,inc,1,no,163,164,,,,,,,,,,,,,0,5,5,5,,,,,,,,,,,,,,,,,,,,,,,,,,,,,,,,,,,,,,,,,,,,,,,,,,,,,,,,,,,,,,,,,,,,,,,,,,,,,,,,,,,,,,,,,,,,,552.5188900492394,None,553.019619081464,None,553.019619081464,None,left,0,1.522321600394207,553.019619081464,None,,,,,,,,,,,,,554.5595805033754,None,,,,,,,,,,,,,,,,,,,,,,,,,,,,,,,,,541.5274992366494,None,541.5274992366494,None,542.027580382779,None,552.0294287825645,552.0294287825645,0.009868844760603679,None,552.0294287825645,552.0294287825645,556.060140636186,None,556.060140636186,None,None,0.00871932804602693,None,,NENA_031,001,2021_Feb_28_1026,test7,3.2.4,99.99140502215518,
160,47,Många villaägare i Stockholms skärgård anmäler inbrott av ett slag som dagens otroligt billiga och opålitliga larmsystem inte kan hindra.,18,,19,,cor,1,no,161,162,,,,,,,,,,,,,0,6,6,6,,,,,,,,,,,,,,,,,,,,,,,,,,,,,,,,,,,,,,,,,,,,,,,,,,,,,,,,,,,,,,,,,,,,,,,,,,,,,,,,,,,,,,,,,,,,,567.5616316081178,None,568.0623410754652,None,568.0623410754652,None,left,1,0.8074302913046267,568.0623410754652,None,,,,,,,,,,,,,568.8822790965005,None,,,,,,,,,,,,,,,,,,,,,,,,,,,,,,,,,556.0701622152828,None,556.0701622152828,None,556.5702427199412,None,567.0722094711964,567.0722094711964,0.009869486232673808,None,567.0722094711964,567.0722094711964,570.3827430086034,None,570.3827430086034,None,None,0.007559547788332566,None,,NENA_031,001,2021_Feb_28_1026,test7,3.2.4,99.99140502215518,
180,31,Munstycket som bara såldes i en eller två affärer i staden var otroligt dyrt och trumpetaren gick hem tomhänt.,14,,0,,cor,1,no,181,199,,,,,,,,,,,,,0,7,7,7,,,,,,,,,,,,,,,,,,,,,,,,,,,,,,,,,,,,,,,,,,,,,,,,,,,,,,,,,,,,,,,,,,,,,,,,,,,,,,,,,,,,,,,,,,,,,581.3841579661766,None,581.8848478686468,None,581.8848478686468,None,right,0,2.376684183111138,581.8848478686468,None,,,,,,,,,,,,,584.2750202704956,None,,,,,,,,,,,,,,,,,,,,,,,,,,,,,,,,,570.3927710024145,None,570.3927710024145,None,570.8928393191163,None,580.8946867566947,580.8946867566947,0.009867561818282411,None,580.8946867566947,580.8946867566947,585.7755505748868,None,585.7755505748868,None,None,0.0077452537525459775,None,,NENA_031,001,2021_Feb_28_1026,test7,3.2.4,99.99140502215518,
150,65,Poeten skrev verk som allmänheten inte fick se.  ,6,,7,,cor,1,no,151,152,,,,,,,,,,,,,0,8,8,8,,,,,,,,,,,,,,,,,,,,,,,,,,,,,,,,,,,,,,,,,,,,,,,,,,,,,,,,,,,,,,,,,,,,,,,,,,,,,,,,,,,,,,,,,,,,,591.2759686859326,None,591.7766797569593,None,591.7766797569593,None,left,1,1.0606277054048405,591.7766797569593,None,,,,,,,,,,,,,592.8471941400303,None,,,,,,,,,,,,,,,,,,,,,,,,,,,,,,,,,585.7855849834114,None,585.7855849834114,None,586.2856674124841,None,590.786504211901,590.786504211901,0.009870769174995075,None,590.786504211901,590.786504211901,594.3471195369087,None,594.3471195369087,None,None,0.00796463696497085,None,,NENA_031,001,2021_Feb_28_1026,test7,3.2.4,99.99140502215518,
170,76,Pianot är redan stämd och mikrofonerna är på plats. ,4,,0,,inc,1,no,174,199,,,,,,,,,,,,,0,9,9,9,,,,,,,,,,,,,,,,,,,,,,,,,,,,,,,,,,,,,,,,,,,,,,,,,,,,,,,,,,,,,,,,,,,,,,,,,,,,,,,,,,,,,,,,,,,,,600.3376249906987,None,600.8383424764388,None,600.8383424764388,None,left,0,1.270892722892313,600.8383424764388,None,,,,,,,,,,,,,602.1185179316908,None,,,,,,,,,,,,,,,,,,,,,,,,,,,,,,,,,594.3571366257065,None,594.3571366257065,None,594.857236053771,None,599.8481579507816,599.8481579507816,0.009863712990409113,None,599.8481579507816,599.8481579507816,603.6188019110717,None,603.6188019110717,None,None,0.008237903773988364,None,,NENA_031,001,2021_Feb_28_1026,test7,3.2.4,99.99140502215518,
170,100,Mordet var väldigt hemsk och hela landet sörjde.,4,,0,,inc,1,no,174,199,,,,,,,,,,,,,0,10,10,10,,,,,,,,,,,,,,,,,,,,,,,,,,,,,,,,,,,,,,,,,,,,,,,,,,,,,,,,,,,,,,,,,,,,,,,,,,,,,,,,,,,,,,,,,,,,,609.1192293234526,None,609.6199397530081,None,609.6199397530081,None,right,1,2.489077987524979,609.6199397530081,None,,,,,,,,,,,,,612.120346445864,None,,,,,,,,,,,,,,,,,,,,,,,,,,,,,,,,,603.6288234901685,None,603.6288234901685,None,604.1289357476608,None,608.6297584347076,608.6297584347076,0.009868844760603679,None,608.6297584347076,608.6297584347076,613.6206570463067,None,613.6206570463067,None,None,0.007715104598901235,None,,NENA_031,001,2021_Feb_28_1026,test7,3.2.4,99.99140502215518,
130,1,Hönor lägger ofta ägg tidigt på morgonen.,3,,4,,cor,1,no,131,132,,,,,,,,,,,,,0,11,11,11,,,,,,,,,,,,,,,,,,,,,,,,,,,,,,,,,,,,,,,,,,,,,,,,,,,,,,,,,,,,,,,,,,,,,,,,,,,,,,,,,,,,,,,,,,,,,618.6209757292891,None,619.1216755745663,None,619.1216755745663,None,left,1,0.8832060226459362,619.1216755745663,None,,,,,,,,,,,,,620.0215220063174,None,,,,,,,,,,,,,,,,,,,,,,,,,,,,,,,,,613.6306824742323,None,613.6306824742323,None,614.1307366785641,None,618.1314859171371,618.1314859171371,0.009870448438960011,None,618.1314859171371,618.1314859171371,621.5220930441413,None,621.5220930441413,None,None,0.00784436108187947,None,,NENA_031,001,2021_Feb_28_1026,test7,3.2.4,99.99140502215518,
150,60,Hästarna hade stamtavlor men ägarna inte har vetat om dem. ,6,,7,,inc,1,no,157,158,,,,,,,,,,,,,0,12,12,12,,,,,,,,,,,,,,,,,,,,,,,,,,,,,,,,,,,,,,,,,,,,,,,,,,,,,,,,,,,,,,,,,,,,,,,,,,,,,,,,,,,,,,,,,,,,,628.0226497130061,None,628.523393499072,None,628.523393499072,None,left,0,1.3054026002682804,628.523393499072,None,,,,,,,,,,,,,629.8436211444359,None,,,,,,,,,,,,,,,,,,,,,,,,,,,,,,,,,621.5321213586876,None,621.5321213586876,None,622.0322188623377,None,627.5332128222435,627.5332128222435,0.009870127703834441,None,627.5332128222435,627.5332128222435,631.3438576549346,None,631.3438576549346,None,None,0.008204226526686398,None,,NENA_031,001,2021_Feb_28_1026,test7,3.2.4,99.99140502215518,
150,76,Bröderna tog leksaken och lillasystern inte hade sett den.  ,6,,7,,inc,1,no,157,158,,,,,,,,,,,,,0,13,13,13,,,,,,,,,,,,,,,,,,,,,,,,,,,,,,,,,,,,,,,,,,,,,,,,,,,,,,,,,,,,,,,,,,,,,,,,,,,,,,,,,,,,,,,,,,,,,637.3443838539088,None,637.8450853028644,None,637.8450853028644,None,left,0,2.047563178515702,637.8450853028644,None,,,,,,,,,,,,,639.9052017555787,None,,,,,,,,,,,,,,,,,,,,,,,,,,,,,,,,,631.3538606313614,None,631.3538606313614,None,631.8539773791535,None,636.8549059089773,636.8549059089773,0.009868844761513174,None,636.8549059089773,636.8549059089773,641.4057163439214,None,641.4057163439214,None,None,0.007631392582879926,None,,NENA_031,001,2021_Feb_28_1026,test7,3.2.4,99.99140502215518,
150,15,Snickaren använde trä men kunden ville inte köpa den.  ,6,,7,,cor,1,no,155,156,,,,,,,,,,,,,0,14,14,14,,,,,,,,,,,,,,,,,,,,,,,,,,,,,,,,,,,,,,,,,,,,,,,,,,,,,,,,,,,,,,,,,,,,,,,,,,,,,,,,,,,,,,,,,,,,,647.4062159218329,None,647.9069302002163,None,647.9069302002163,None,left,1,5.2414440547145205,647.9069302002163,None,,,,,,,,,,,,,653.1575899535319,None,,,,,,,,,,,,,,,,,,,,,,,,,,,,,,,,,641.4157472243533,None,641.4157472243533,None,641.9158225972405,None,646.9167437501446,646.9167437501446,0.009867241083156841,None,646.9167437501446,646.9167437501446,654.6581462375137,None,654.6581462375137,None,None,0.008698800961610686,None,,NENA_031,001,2021_Feb_28_1026,test7,3.2.4,99.99140502215518,
170,114,Sjön är ganska förorenat till följd av ansvarslös båttrafik. ,4,,0,,inc,1,no,172,199,,,,,,,,,,,,,0,15,15,15,,,,,,,,,,,,,,,,,,,,,,,,,,,,,,,,,,,,,,,,,,,,,,,,,,,,,,,,,,,,,,,,,,,,,,,,,,,,,,,,,,,,,,,,,,,,,660.6586281749624,None,661.159338925253,None,661.159338925253,None,left,0,2.0048706921988924,661.159338925253,None,,,,,,,,,,,,,663.1800539605729,None,,,,,,,,,,,,,,,,,,,,,,,,,,,,,,,,,654.6681588360116,None,654.6681588360116,None,655.1682370955205,None,660.1691637009308,660.1691637009308,0.00986788255340798,None,660.1691637009308,660.1691637009308,664.6799841684864,None,664.6799841684864,None,None,0.007961108873132616,None,,NENA_031,001,2021_Feb_28_1026,test7,3.2.4,99.99140502215518,
160,34,Den nya medicinen mildrar de flesta typer av huvudvärk som många andra liknande substanser på marknaden kan inte klara av.,17,,18,,inc,1,no,163,164,,,,,,,,,,,,,0,16,16,16,,,,,,,,,,,,,,,,,,,,,,,,,,,,,,,,,,,,,,,,,,,,,,,,,,,,,,,,,,,,,,,,,,,,,,,,,,,,,,,,,,,,,,,,,,,,,676.1814722537965,None,676.6821682502459,None,676.6821682502459,None,right,1,0.9060510636873005,676.6821682502459,None,,,,,,,,,,,,,677.602605271868,None,,,,,,,,,,,,,,,,,,,,,,,,,,,,,,,,,664.6899932388915,None,664.6899932388915,None,665.1900647629509,None,675.6919901393021,675.6919901393021,0.009869486231764313,None,675.6919901393021,675.6919901393021,679.1025909670565,None,679.1025909670565,None,None,0.007992220234882552,None,,NENA_031,001,2021_Feb_28_1026,test7,3.2.4,99.99140502215518,
160,28,Det lilla rådjuret söker en lugn plats som de högljudda arbetarna från den kommunala parkförvaltningen kan inte hitta.,16,,17,,inc,1,no,163,164,,,,,,,,,,,,,0,17,17,17,,,,,,,,,,,,,,,,,,,,,,,,,,,,,,,,,,,,,,,,,,,,,,,,,,,,,,,,,,,,,,,,,,,,,,,,,,,,,,,,,,,,,,,,,,,,,689.6039206089363,None,690.1046117943497,None,690.1046117943497,None,right,1,2.6192639629080077,690.1046117943497,None,,,,,,,,,,,,,692.7352349324783,None,,,,,,,,,,,,,,,,,,,,,,,,,,,,,,,,,679.1126279414666,None,679.1126279414666,None,679.6127145401033,None,689.1144352870842,689.1144352870842,0.009865637403891014,None,689.1144352870842,689.1144352870842,694.2353668831414,None,694.2353668831414,None,None,0.008141683066241967,None,,NENA_031,001,2021_Feb_28_1026,test7,3.2.4,99.99140502215518,
180,36,Biobesöket som de alla hade sett fram emot så mycket den här veckan blev ganska tråkig av någon anledning. ,16,,0,,inc,1,no,182,199,,,,,,,,,,,,,0,18,18,18,,,,,,,,,,,,,,,,,,,,,,,,,,,,,,,,,,,,,,,,,,,,,,,,,,,,,,,,,,,,,,,,,,,,,,,,,,,,,,,,,,,,,,,,,,,,,705.2367584270096,None,705.7374925910053,None,705.7374925910053,None,left,0,0.8021054373684819,705.7374925910053,None,,,,,,,,,,,,,706.5574142545202,None,,,,,,,,,,,,,,,,,,,,,,,,,,,,,,,,,694.2453903866535,None,694.2453903866535,None,694.745434327443,None,704.7473013298986,704.7473013298986,0.009869165496638743,None,704.7473013298986,704.7473013298986,708.0578986937074,None,708.0578986937074,None,None,0.008124363339447882,None,,NENA_031,001,2021_Feb_28_1026,test7,3.2.4,99.99140502215518,
150,73,Gästerna hade gåvor som värdarna inte ville ta emot.  ,6,,7,,cor,1,no,151,152,,,,,,,,,,,,,0,19,19,19,,,,,,,,,,,,,,,,,,,,,,,,,,,,,,,,,,,,,,,,,,,,,,,,,,,,,,,,,,,,,,,,,,,,,,,,,,,,,,,,,,,,,,,,,,,,,714.0683946408917,None,714.5691018630896,None,714.5691018630896,None,right,0,2.026279478816832,714.5691018630896,None,,,,,,,,,,,,,716.6092223699034,None,,,,,,,,,,,,,,,,,,,,,,,,,,,,,,,,,708.0679103299981,None,708.0679103299981,None,708.5679385547392,None,713.5789099605108,713.5789099605108,0.00986499593273038,None,713.5789099605108,713.5789099605108,718.1097395241308,None,718.1097395241308,None,None,0.008695593604898022,None,,NENA_031,001,2021_Feb_28_1026,test7,3.2.4,99.99140502215518,
170,98,Skyskrapan var ganska högt men det fanns några högre. ,4,,0,,inc,1,no,172,199,,,,,,,,,,,,,0,20,20,20,,,,,,,,,,,,,,,,,,,,,,,,,,,,,,,,,,,,,,,,,,,,,,,,,,,,,,,,,,,,,,,,,,,,,,,,,,,,,,,,,,,,,,,,,,,,,724.1102330080648,None,724.6109142506712,None,724.6109142506712,None,left,0,2.000322339368722,724.6109142506712,None,,,,,,,,,,,,,726.6216104652203,None,,,,,,,,,,,,,,,,,,,,,,,,,,,,,,,,,718.119754047043,None,718.119754047043,None,718.6198310236086,None,723.6207409507633,723.6207409507633,0.009868844761513174,None,723.6207409507633,723.6207409507633,728.1215608794831,None,728.1215608794831,None,None,0.007959825930811348,None,,NENA_031,001,2021_Feb_28_1026,test7,3.2.4,99.99140502215518,
140,56,Bin samlar ofta honung från omgivande blomsteräng.,3,,4,,inc,1,no,135,136,,,,,,,,,,,,,0,21,21,21,,,,,,,,,,,,,,,,,,,,,,,,,,,,,,,,,,,,,,,,,,,,,,,,,,,,,,,,,,,,,,,,,,,,,,,,,,,,,,,,,,,,,,,,,,,,,733.1220646269585,None,733.6225643331645,None,733.6225643331645,None,left,0,1.7405084687052295,733.6225643331645,None,,,,,,,,,,,,,735.3729463293721,None,,,,,,,,,,,,,,,,,,,,,,,,,,,,,,,,,728.1315789304872,None,728.1315789304872,None,728.6316369836477,None,732.6324086737195,732.6324086737195,0.009870769174995075,None,732.6324086737195,732.6324086737195,736.8731388990813,None,736.8731388990813,None,None,0.008178888406291662,None,,NENA_031,001,2021_Feb_28_1026,test7,3.2.4,99.99140502215518,
150,21,Astronomen upptäckte en planet som forskarna inte hade känt till.  ,6,,7,,cor,1,no,151,152,,,,,,,,,,,,,0,22,22,22,,,,,,,,,,,,,,,,,,,,,,,,,,,,,,,,,,,,,,,,,,,,,,,,,,,,,,,,,,,,,,,,,,,,,,,,,,,,,,,,,,,,,,,,,,,,,743.3737388672644,None,743.8744342222417,None,743.8744342222417,None,left,1,0.5285518911859981,743.8744342222417,None,,,,,,,,,,,,,744.4143039137452,None,,,,,,,,,,,,,,,,,,,,,,,,,,,,,,,,,736.8831412340369,None,736.8831412340369,None,737.3832457938724,None,742.884280166475,742.884280166475,0.009864675196695316,None,742.884280166475,742.884280166475,745.9148098422232,None,745.9148098422232,None,None,0.008628559844510164,None,,NENA_031,001,2021_Feb_28_1026,test7,3.2.4,99.99140502215518,
180,40,Fatet som med sina präglade mönster runt kanten såg väldigt inbjudande ut var otroligt kladdig efter kalaset.  ,15,,0,,inc,1,no,182,199,,,,,,,,,,,,,0,23,23,23,,,,,,,,,,,,,,,,,,,,,,,,,,,,,,,,,,,,,,,,,,,,,,,,,,,,,,,,,,,,,,,,,,,,,,,,,,,,,,,,,,,,,,,,,,,,,755.9160256229325,None,756.4167338073376,None,756.4167338073376,None,left,0,1.7780576374871089,756.4167338073376,None,,,,,,,,,,,,,758.2068597666585,None,,,,,,,,,,,,,,,,,,,,,,,,,,,,,,,,,745.9248166674788,None,745.9248166674788,None,746.4249026246443,None,755.4265659599359,755.4265659599359,0.009864675196695316,None,755.4265659599359,755.4265659599359,759.7073031516769,None,759.7073031516769,None,None,0.008437080637122563,None,,NENA_031,001,2021_Feb_28_1026,test7,3.2.4,99.99140502215518,
150,10,Syskonen fick godis som systern ville inte ha.  ,6,,7,,inc,1,no,153,154,,,,,,,,,,,,,0,24,24,24,,,,,,,,,,,,,,,,,,,,,,,,,,,,,,,,,,,,,,,,,,,,,,,,,,,,,,,,,,,,,,,,,,,,,,,,,,,,,,,,,,,,,,,,,,,,,765.2077154894814,None,765.7084336166927,None,765.7084336166927,None,right,1,1.158219878428099,765.7084336166927,None,,,,,,,,,,,,,766.8783773468231,None,,,,,,,,,,,,,,,,,,,,,,,,,,,,,,,,,759.7173420505014,None,759.7173420505014,None,760.2174151782392,None,764.7182446007355,764.7182446007355,0.009867241082247347,None,764.7182446007355,764.7182446007355,768.3789169525493,None,768.3789169525493,None,None,0.007684313971367374,None,,NENA_031,001,2021_Feb_28_1026,test7,3.2.4,99.99140502215518,
170,16,Fartyget är kraftigt skadad och måste bogseras.  ,4,,0,,inc,1,no,174,199,,,,,,,,,,,,,0,25,25,25,,,,,,,,,,,,,,,,,,,,,,,,,,,,,,,,,,,,,,,,,,,,,,,,,,,,,,,,,,,,,,,,,,,,,,,,,,,,,,,,,,,,,,,,,,,,,773.3792000338699,None,773.8799159159316,None,773.8799159159316,None,left,0,2.69050801967569,773.8799159159316,None,,,,,,,,,,,,,776.5806422539763,None,,,,,,,,,,,,,,,,,,,,,,,,,,,,,,,,,768.3889208911833,None,768.3889208911833,None,768.8889953018634,None,772.8897403708734,772.8897403708734,0.009869806967799377,None,772.8897403708734,772.8897403708734,778.0806773424614,None,778.0806773424614,None,None,0.008056688108808885,None,,NENA_031,001,2021_Feb_28_1026,test7,3.2.4,99.99140502215518,
160,24,En polisassistent från förorten arresterade tre misstänkta smugglare som de äldre kollegorna på polisstationen hade inte upptäckt.,15,,16,,inc,1,no,163,164,,,,,,,,,,,,,0,26,26,26,,,,,,,,,,,,,,,,,,,,,,,,,,,,,,,,,,,,,,,,,,,,,,,,,,,,,,,,,,,,,,,,,,,,,,,,,,,,,,,,,,,,,,,,,,,,,788.0819008208264,None,788.5826013075748,None,788.5826013075748,None,right,1,1.283611817442761,788.5826013075748,None,,,,,,,,,,,,,789.8827037505553,None,,,,,,,,,,,,,,,,,,,,,,,,,,,,,,,,,778.0907062984788,None,778.0907062984788,None,778.5907608235466,None,787.5924299320814,787.5924299320814,0.009860184896751889,None,787.5924299320814,787.5924299320814,791.383111213176,None,791.383111213176,None,None,0.00794475135171524,None,,NENA_031,001,2021_Feb_28_1026,test7,3.2.4,99.99140502215518,
180,25,Pennan som hade använts flera gånger tidigare på de många lektionerna var återigen vässad och matematikboken låg på bordet.,14,,0,,cor,1,no,181,199,,,,,,,,,,,,,0,27,27,27,,,,,,,,,,,,,,,,,,,,,,,,,,,,,,,,,,,,,,,,,,,,,,,,,,,,,,,,,,,,,,,,,,,,,,,,,,,,,,,,,,,,,,,,,,,,,802.3845101339648,None,802.8852218464626,None,802.8852218464626,None,left,1,2.532769244782685,802.8852218464626,None,,,,,,,,,,,,,805.4354654131457,None,,,,,,,,,,,,,,,,,,,,,,,,,,,,,,,,,791.3931353581593,None,791.3931353581593,None,791.8932084858961,None,801.8950475843467,801.8950475843467,0.009868844760603679,None,801.8950475843467,801.8950475843467,806.9359520974834,None,806.9359520974834,None,None,0.008151946609359584,None,,NENA_031,001,2021_Feb_28_1026,test7,3.2.4,99.99140502215518,
160,2,Den höga ljudnivån gav allvarliga skador på husgrunden som de flesta boende i de gamla radhusen kunde inte upptäcka direkt.,17,,18,,inc,1,no,163,164,,,,,,,,,,,,,0,28,28,28,,,,,,,,,,,,,,,,,,,,,,,,,,,,,,,,,,,,,,,,,,,,,,,,,,,,,,,,,,,,,,,,,,,,,,,,,,,,,,,,,,,,,,,,,,,,,818.4374122787885,None,818.9381554233842,None,818.9381554233842,None,right,1,0.7835977050717702,818.9381554233842,None,,,,,,,,,,,,,819.7380686323058,None,,,,,,,,,,,,,,,,,,,,,,,,,,,,,,,,,806.9459669411308,None,806.9459669411308,None,807.4460240320841,None,817.9479766709692,817.9479766709692,0.009864354460660252,None,817.9479766709692,817.9479766709692,821.2385187527747,None,821.2385187527747,None,None,0.008137834238368669,None,,NENA_031,001,2021_Feb_28_1026,test7,3.2.4,99.99140502215518,
170,60,Lammet är verkligen gullig och kallas Maja.,4,,0,,inc,1,no,174,199,,,,,,,,,,,,,0,29,29,29,,,,,,,,,,,,,,,,,,,,,,,,,,,,,,,,,,,,,,,,,,,,,,,,,,,,,,,,,,,,,,,,,,,,,,,,,,,,,,,,,,,,,,,,,,,,,826.2388723959466,None,826.7395796181445,None,826.7395796181445,None,left,0,3.094009555357843,826.7395796181445,None,,,,,,,,,,,,,829.8499171860449,None,,,,,,,,,,,,,,,,,,,,,,,,,,,,,,,,,821.2485435392282,None,821.2485435392282,None,821.7485903666393,None,825.7493870740955,825.7493870740955,0.009857939748144418,None,825.7493870740955,825.7493870740955,831.3504106058311,None,831.3504106058311,None,None,0.00760316784180759,None,,NENA_031,001,2021_Feb_28_1026,test7,3.2.4,99.99140502215518,
150,16,Forskaren gav en föreläsning men studenterna inte kunde följa den.  ,6,,7,,inc,1,no,157,158,,,,,,,,,,,,,0,30,30,30,,,,,,,,,,,,,,,,,,,,,,,,,,,,,,,,,,,,,,,,,,,,,,,,,,,,,,,,,,,,,,,,,,,,,,,,,,,,,,,,,,,,,,,,,,,,,837.8509890847226,None,838.3516911751503,None,838.3516911751503,None,left,0,1.441739323990987,838.3516911751503,None,,,,,,,,,,,,,839.8117130749824,None,,,,,,,,,,,,,,,,,,,,,,,,,,,,,,,,,831.3604161481444,None,831.3604161481444,None,831.8604934454452,None,837.3615111397921,837.3615111397921,0.009866599611086713,None,837.3615111397921,837.3615111397921,841.3122427379025,None,841.3122427379025,None,None,0.008045141624279495,None,,NENA_031,001,2021_Feb_28_1026,test7,3.2.4,99.99140502215518,
140,74,Journalister tar ofta bilder av framstående människa.,3,,4,,inc,1,no,137,138,,,,,,,,,,,,,0,31,31,31,,,,,,,,,,,,,,,,,,,,,,,,,,,,,,,,,,,,,,,,,,,,,,,,,,,,,,,,,,,,,,,,,,,,,,,,,,,,,,,,,,,,,,,,,,,,,846.3225019821466,None,846.8232419193846,None,846.8232419193846,None,right,1,3.074010402100612,846.8232419193846,None,,,,,,,,,,,,,849.9135113758539,None,,,,,,,,,,,,,,,,,,,,,,,,,,,,,,,,,841.3222271116592,None,841.3222271116592,None,841.8223291056092,None,845.8330442435645,845.8330442435645,0.00986852402547811,None,845.8330442435645,845.8330442435645,851.4140452083369,None,851.4140452083369,None,None,0.008515019409969682,None,,NENA_031,001,2021_Feb_28_1026,test7,3.2.4,99.99140502215518,
170,35,Strandbadet var helt tomt och solen strålade.  ,4,,0,,cor,1,no,173,199,,,,,,,,,,,,,0,32,32,32,,,,,,,,,,,,,,,,,,,,,,,,,,,,,,,,,,,,,,,,,,,,,,,,,,,,,,,,,,,,,,,,,,,,,,,,,,,,,,,,,,,,,,,,,,,,,856.4143574766058,None,856.9150284556708,None,856.9150284556708,None,left,1,2.286111952151259,856.9150284556708,None,,,,,,,,,,,,,859.2152373828994,None,,,,,,,,,,,,,,,,,,,,,,,,,,,,,,,,,851.4240693533202,None,851.4240693533202,None,851.9241501787137,None,855.92490070023,855.92490070023,0.009865958139926079,None,855.92490070023,855.92490070023,860.715745877263,None,860.715745877263,None,None,0.007760007594697527,None,,NENA_031,001,2021_Feb_28_1026,test7,3.2.4,99.99140502215518,
140,16,Pirater hittar ibland skatter nedgrävda i market.,3,,4,,inc,1,no,131,132,,,,,,,,,,,,,0,33,33,33,,,,,,,,,,,,,,,,,,,,,,,,,,,,,,,,,,,,,,,,,,,,,,,,,,,,,,,,,,,,,,,,,,,,,,,,,,,,,,,,,,,,,,,,,,,,,865.7160745030524,None,866.2167798008359,None,866.2167798008359,None,right,1,4.872229164368036,866.2167798008359,None,,,,,,,,,,,,,871.10734702832,None,,,,,,,,,,,,,,,,,,,,,,,,,,,,,,,,,860.7257834931452,None,860.7257834931452,None,861.225870733253,None,865.2265939922354,865.2265939922354,0.009863712990409113,None,865.2265939922354,865.2265939922354,872.6079260845357,None,872.6079260845357,None,None,0.00858461905590957,None,,NENA_031,001,2021_Feb_28_1026,test7,3.2.4,99.99140502215518,
170,40,Päronet är för besk för barnen.  ,4,,0,,inc,1,no,174,199,,,,,,,,,,,,,0,34,34,34,,,,,,,,,,,,,,,,,,,,,,,,,,,,,,,,,,,,,,,,,,,,,,,,,,,,,,,,,,,,,,,,,,,,,,,,,,,,,,,,,,,,,,,,,,,,,877.1083624775165,None,877.6088426188453,None,877.6088426188453,None,right,1,5.647967241338847,877.6088426188453,None,,,,,,,,,,,,,883.269965796746,None,,,,,,,,,,,,,,,,,,,,,,,,,,,,,,,,,872.6179441355407,None,872.6179441355407,None,873.1180214328415,None,876.618657451716,876.618657451716,0.009868844760603679,None,876.618657451716,876.618657451716,884.770120198907,None,884.770120198907,None,None,0.008152267343575659,None,,NENA_031,001,2021_Feb_28_1026,test7,3.2.4,99.99140502215518,
160,7,Den snälla grannen bakade saftiga bullar med blåbär som den gamla tanten med mycket dålig syn inte kunde se.,17,,18,,cor,1,no,161,162,,,,,,,,,,,,,0,35,35,35,,,,,,,,,,,,,,,,,,,,,,,,,,,,,,,,,,,,,,,,,,,,,,,,,,,,,,,,,,,,,,,,,,,,,,,,,,,,,,,,,,,,,,,,,,,,,895.7715306661812,None,896.2722641887058,None,896.2722641887058,None,left,1,0.36832003776999045,896.2722641887058,None,,,,,,,,,,,,,896.6525088587196,None,,,,,,,,,,,,,,,,,,,,,,,,,,,,,,,,,884.7801279863697,None,884.7801279863697,None,885.2801982274859,None,895.2820947376249,895.2820947376249,0.009867882554317475,None,895.2820947376249,895.2820947376249,898.1525981515364,None,898.1525981515364,None,None,0.008065027237535105,None,,NENA_031,001,2021_Feb_28_1026,test7,3.2.4,99.99140502215518,
170,101,Boken är ganska sliten efter sommaren på stranden. ,4,,0,,cor,1,no,171,199,,,,,,,,,,,,,0,36,36,36,,,,,,,,,,,,,,,,,,,,,,,,,,,,,,,,,,,,,,,,,,,,,,,,,,,,,,,,,,,,,,,,,,,,,,,,,,,,,,,,,,,,,,,,,,,,,903.6529989428554,None,904.1537032784317,None,904.1537032784317,None,left,1,3.5506816916367825,904.1537032784317,None,,,,,,,,,,,,,907.7141221849024,None,,,,,,,,,,,,,,,,,,,,,,,,,,,,,,,,,898.162628069761,None,898.162628069761,None,898.662679066736,None,903.1635110551179,903.1635110551179,0.009863071519248479,None,903.1635110551179,903.1635110551179,909.2146117558608,None,909.2146117558608,None,None,0.007654806287064275,None,,NENA_031,001,2021_Feb_28_1026,test7,3.2.4,99.99140502215518,
170,9,Processen är mycket skadlig för miljön.  ,4,,0,,cor,1,no,171,199,,,,,,,,,,,,,0,37,37,37,,,,,,,,,,,,,,,,,,,,,,,,,,,,,,,,,,,,,,,,,,,,,,,,,,,,,,,,,,,,,,,,,,,,,,,,,,,,,,,,,,,,,,,,,,,,,913.7148149739951,None,914.2155449684269,None,914.2155449684269,None,left,1,0.7367651624590508,914.2155449684269,None,,,,,,,,,,,,,914.9654282206357,None,,,,,,,,,,,,,,,,,,,,,,,,,,,,,,,,,909.2246314105441,None,909.2246314105441,None,909.7247074249026,None,913.2253161812441,913.2253161812441,0.009869486232673808,None,913.2253161812441,913.2253161812441,916.4659354320569,None,916.4659354320569,None,None,0.007677899258851539,None,,NENA_031,001,2021_Feb_28_1026,test7,3.2.4,99.99140502215518,
150,50,Riksdagen fattar beslut som kommunerna kan inte genomföra.  ,6,,7,,inc,1,no,153,154,,,,,,,,,,,,,0,38,38,38,,,,,,,,,,,,,,,,,,,,,,,,,,,,,,,,,,,,,,,,,,,,,,,,,,,,,,,,,,,,,,,,,,,,,,,,,,,,,,,,,,,,,,,,,,,,,921.9663445625038,None,922.4670517847017,None,922.4670517847017,None,right,1,1.4850934880387285,922.4670517847017,None,,,,,,,,,,,,,923.9676201283455,None,,,,,,,,,,,,,,,,,,,,,,,,,,,,,,,,,916.4759550867393,None,916.4759550867393,None,916.976032704777,None,921.4768669383084,921.4768669383084,0.009866920346212282,None,921.4768669383084,921.4768669383084,925.4676051820628,None,925.4676051820628,None,None,0.007978749335961766,None,,NENA_031,001,2021_Feb_28_1026,test7,3.2.4,99.99140502215518,
150,47,Djuren fick rättigheter men djurrättsaktivisterna hade inte krävt dessa från början. ,6,,7,,cor,1,no,155,156,,,,,,,,,,,,,0,39,39,39,,,,,,,,,,,,,,,,,,,,,,,,,,,,,,,,,,,,,,,,,,,,,,,,,,,,,,,,,,,,,,,,,,,,,,,,,,,,,,,,,,,,,,,,,,,,,932.4682590338416,None,932.9689466911623,None,932.9689466911623,None,left,1,3.0309493904733245,932.9689466911623,None,,,,,,,,,,,,,936.0092727895535,None,,,,,,,,,,,,,,,,,,,,,,,,,,,,,,,,,925.4775972534762,None,925.4775972534762,None,925.9776947571263,None,931.9787948805451,931.9787948805451,0.009871731382190774,None,931.9787948805451,931.9787948805451,937.5097947548169,None,937.5097947548169,None,None,0.007692011628023465,None,,NENA_031,001,2021_Feb_28_1026,test7,3.2.4,99.99140502215518,
180,57,Cykeln som med sina löstagbara delar snabbt och enkelt kunde fällas ihop låg äntligen nerpackad i bagaget.  ,15,,0,,cor,1,no,181,199,,,,,,,,,,,,,0,40,40,40,,,,,,,,,,,,,,,,,,,,,,,,,,,,,,,,,,,,,,,,,,,,,,,,,,,,,,,,,,,,,,,,,,,,,,,,,,,,,,,,,,,,,,,,,,,,,947.5210081877403,None,948.0217073915464,None,948.0217073915464,None,left,1,0.7460357068630401,948.0217073915464,None,,,,,,,,,,,,,948.7815931070054,None,,,,,,,,,,,,,,,,,,,,,,,,,,,,,,,,,937.5197974105085,None,937.5197974105085,None,938.019883046938,None,947.0315472418015,947.0315472418015,0.009866278875051648,None,947.0315472418015,947.0315472418015,950.28211122344,None,950.28211122344,None,None,0.008624069545476232,None,,NENA_031,001,2021_Feb_28_1026,test7,3.2.4,99.99140502215518,
150,34,Darknet är webbsidor som sökmotorer kan inte hitta.  ,6,,7,,inc,1,no,153,154,,,,,,,,,,,,,0,41,41,41,,,,,,,,,,,,,,,,,,,,,,,,,,,,,,,,,,,,,,,,,,,,,,,,,,,,,,,,,,,,,,,,,,,,,,,,,,,,,,,,,,,,,,,,,,,,,955.7824953365034,None,956.2832224443137,None,956.2832224443137,None,right,1,2.444335037936071,956.2832224443137,None,,,,,,,,,,,,,958.7435615517452,None,,,,,,,,,,,,,,,,,,,,,,,,,,,,,,,,,950.2921241426739,None,950.2921241426739,None,950.792217156024,None,955.2930388808636,955.2930388808636,0.009868844762422668,None,955.2930388808636,955.2930388808636,960.2439516946391,None,960.2439516946391,None,None,0.007917488818748097,None,,NENA_031,001,2021_Feb_28_1026,test7,3.2.4,99.99140502215518,
130,21,Skomakare lagar ofta skor åt äldre kunder.,3,,4,,cor,1,no,131,132,,,,,,,,,,,,,0,42,42,42,,,,,,,,,,,,,,,,,,,,,,,,,,,,,,,,,,,,,,,,,,,,,,,,,,,,,,,,,,,,,,,,,,,,,,,,,,,,,,,,,,,,,,,,,,,,,965.2442559445153,None,965.7449464884576,None,965.7449464884576,None,left,1,0.9744761744696007,965.7449464884576,None,,,,,,,,,,,,,966.7353664341117,None,,,,,,,,,,,,,,,,,,,,,,,,,,,,,,,,,960.2539675004937,None,960.2539675004937,None,960.754047684417,None,964.7547667738354,964.7547667738354,0.009869806967799377,None,964.7547667738354,964.7547667738354,968.2354121068742,None,968.2354121068742,None,None,0.008054763694417488,None,,NENA_031,001,2021_Feb_28_1026,test7,3.2.4,99.99140502215518,
160,45,Den lite undanskymda båten inrymde ett flertal rum som den utmattade konstnären från södra Stockholm inte ville hyra.,16,,17,,cor,1,yes,161,162,,,,,,,,,,,,,0,43,43,43,,,,,,,,,,,,,,,,,,,,,,,,,,,,,,,,,,,,,,,,,,,,,,,,,,,,,,,,,,,,,,,,,,,,,,,,,,,,,,,,,,,,,,,,,,,,,978.736700053114,None,979.2373992569192,None,979.2373992569192,None,left,1,0.5699178146860504,979.2373992569192,None,,,,,,,,,,,,,979.8179401584175,None,,,,,,,,,,,,,,,,,,,,,,,,,,,,,,,,,968.2454051404948,None,968.2454051404948,None,968.7454981538449,None,978.247238144967,978.247238144967,0.009867561818282411,None,978.247238144967,978.247238144967,981.3183272863962,None,981.3183272863962,None,space,0.00789632026317122,None,81.57580844638233,NENA_031,001,2021_Feb_28_1026,test7,3.2.4,99.99140502215518,
170,18,Kakan är för sött för morföräldrarna.  ,4,,0,,inc,1,no,172,199,,,,,,,,,,,,,0,44,44,44,,,,,,,,,,,,,,,,,,,,,,,,,,,,,,,,,,,,,,,,,,,,,,,,,,,,,,,,,,,,,,,,,,,,,,,,,,,,,,,,,,,,,,,,,,,,,1067.3928858257914,None,1067.8935747660553,None,1067.8935747660553,None,left,0,0.5202454782684072,1067.8935747660553,None,,,,,,,,,,,,,1068.4234859350981,None,,,,,,,,,,,,,,,,,,,,,,,,,,,,,,,,,1062.9028055392337,None,1062.9028055392337,None,1063.402751976373,None,1066.903394409962,1066.903394409962,0.009868524026387604,None,1066.903394409962,1066.903394409962,1069.923954016766,None,1069.923954016766,None,None,0.008586543470300967,None,,NENA_031,001,2021_Feb_28_1026,test7,3.2.4,99.99140502215518,
150,33,Barn berättar saker som lärare inte kan veta om.  ,6,,7,,cor,1,no,151,152,,,,,,,,,,,,,0,45,45,45,,,,,,,,,,,,,,,,,,,,,,,,,,,,,,,,,,,,,,,,,,,,,,,,,,,,,,,,,,,,,,,,,,,,,,,,,,,,,,,,,,,,,,,,,,,,,1075.9244340298,None,1076.4251438178835,None,1076.4251438178835,None,left,1,1.6206290140080455,1076.4251438178835,None,,,,,,,,,,,,,1078.05611848233,None,,,,,,,,,,,,,,,,,,,,,,,,,,,,,,,,,1069.9339576346638,None,1069.9339576346638,None,1070.4340541761067,None,1075.4349079745152,1075.4349079745152,0.009866920346212282,None,1075.4349079745152,1075.4349079745152,1079.5557051823193,None,1079.5557051823193,None,None,0.007839229309865914,None,,NENA_031,001,2021_Feb_28_1026,test7,3.2.4,99.99140502215518,
170,50,Älgen är väldigt utbrett i Sverige.  ,4,,0,,inc,1,no,172,199,,,,,,,,,,,,,0,46,46,46,,,,,,,,,,,,,,,,,,,,,,,,,,,,,,,,,,,,,,,,,,,,,,,,,,,,,,,,,,,,,,,,,,,,,,,,,,,,,,,,,,,,,,,,,,,,,1084.0559449643215,None,1084.5566374326772,None,1084.5566374326772,None,left,0,0.7689914017173578,1084.5566374326772,None,,,,,,,,,,,,,1085.3365040194594,None,,,,,,,,,,,,,,,,,,,,,,,,,,,,,,,,,1079.565731572452,None,1079.565731572452,None,1080.065810152696,None,1083.5664522655488,1083.5664522655488,0.009865958139926079,None,1083.5664522655488,1083.5664522655488,1086.8370487569568,None,1086.8370487569568,None,None,0.007864567431170144,None,,NENA_031,001,2021_Feb_28_1026,test7,3.2.4,99.99140502215518,
140,72,Inbrottstjuvar stjäl ofta saker när folk är bortrest.,3,,4,,inc,1,no,137,138,,,,,,,,,,,,,0,47,47,47,,,,,,,,,,,,,,,,,,,,,,,,,,,,,,,,,,,,,,,,,,,,,,,,,,,,,,,,,,,,,,,,,,,,,,,,,,,,,,,,,,,,,,,,,,,,,1092.3374197198564,None,1092.8381554875314,None,1092.8381554875314,None,left,0,4.15928728680683,1092.8381554875314,None,,,,,,,,,,,,,1097.0086386950934,None,,,,,,,,,,,,,,,,,,,,,,,,,,,,,,,,,1086.847063279869,None,1086.847063279869,None,1087.347155651748,None,1091.847961019067,1091.847961019067,0.009867241081337852,None,1091.847961019067,1091.847961019067,1098.5091763764053,None,1098.5091763764053,None,None,0.008716120690223761,None,,NENA_031,001,2021_Feb_28_1026,test7,3.2.4,99.99140502215518,
130,27,Apor äter gärna bananer från de omgivande plantagen.,3,,4,,cor,1,no,133,134,,,,,,,,,,,,,0,48,48,48,,,,,,,,,,,,,,,,,,,,,,,,,,,,,,,,,,,,,,,,,,,,,,,,,,,,,,,,,,,,,,,,,,,,,,,,,,,,,,,,,,,,,,,,,,,,,1104.0095633760893,None,1104.51026963608,None,1104.51026963608,None,left,1,1.5509738818509504,1104.51026963608,None,,,,,,,,,,,,,1106.0802471076058,None,,,,,,,,,,,,,,,,,,,,,,,,,,,,,,,,,1098.5191937859381,None,1098.5191937859381,None,1099.0192778186893,None,1103.5200527161178,1103.5200527161178,0.009870448439869506,None,1103.5200527161178,1103.5200527161178,1107.5808255223506,None,1107.5808255223506,None,None,0.007806193534634076,None,,NENA_031,001,2021_Feb_28_1026,test7,3.2.4,99.99140502215518,
170,43,Skåpet är väldigt modernt och passar bra i vardagsrummet. ,4,,0,,cor,1,no,173,199,,,,,,,,,,,,,0,49,49,49,,,,,,,,,,,,,,,,,,,,,,,,,,,,,,,,,,,,,,,,,,,,,,,,,,,,,,,,,,,,,,,,,,,,,,,,,,,,,,,,,,,,,,,,,,,,,1113.5812923852218,None,1114.0820262284815,None,1114.0820262284815,None,left,1,0.7552700081341754,1114.0820262284815,None,,,,,,,,,,,,,1114.8523910204267,None,,,,,,,,,,,,,,,,,,,,,,,,,,,,,,,,,1107.5908467807121,None,1107.5908467807121,None,1108.0909218328634,None,1113.0918561359304,1113.0918561359304,0.009863071519248479,None,1113.0918561359304,1113.0918561359304,1116.352426750383,None,1116.352426750383,None,None,0.008034878082071373,None,,NENA_031,001,2021_Feb_28_1026,test7,3.2.4,99.99140502215518,
140,34,Matematiker löser gärna problem som intressera allmänheten.,3,,4,,inc,1,no,133,134,,,,,,,,,,,,,0,50,50,50,,,,,,,,,,,,,,,,,,,,,,,,,,,,,,,,,,,,,,,,,,,,,,,,,,,,,,,,,,,,,,,,,,,,,,,,,,,,,,,,,,,,,,,,,,,,,1121.3527088694964,None,1121.853457145863,None,1121.853457145863,None,right,1,2.6395046301404363,1121.853457145863,None,,,,,,,,,,,,,1124.5047353417376,None,,,,,,,,,,,,,,,,,,,,,,,,,,,,,,,,,1116.362463724793,None,1116.362463724793,None,1116.8625269097247,None,1120.8632610737204,1120.8632610737204,0.009863392256193038,None,1120.8632610737204,1120.8632610737204,1126.0041520518103,None,1126.0041520518103,None,None,0.008385121456740308,None,,NENA_031,001,2021_Feb_28_1026,test7,3.2.4,99.99140502215518,
170,49,Utställningen är väldigt populär och har ett gott rykte. ,4,,0,,cor,1,no,171,199,,,,,,,,,,,,,0,51,51,51,,,,,,,,,,,,,,,,,,,,,,,,,,,,,,,,,,,,,,,,,,,,,,,,,,,,,,,,,,,,,,,,,,,,,,,,,,,,,,,,,,,,,,,,,,,,,1132.014668526078,None,1132.5153901813828,None,1132.5153901813828,None,left,1,0.45748071095567866,1132.5153901813828,None,,,,,,,,,,,,,1132.985150578992,None,,,,,,,,,,,,,,,,,,,,,,,,,,,,,,,,,1126.0142031385913,None,1126.0142031385913,None,1126.514290057963,None,1131.5251957129185,1131.5251957129185,0.009868203291262034,None,1131.5251957129185,1131.5251957129185,1134.4857354084502,None,1134.4857354084502,None,None,0.007627543755006627,None,,NENA_031,001,2021_Feb_28_1026,test7,3.2.4,99.99140502215518,
170,45,Tanden var ganska inflammerad och fick behandlas.  ,4,,0,,cor,1,no,171,199,,,,,,,,,,,,,0,52,52,52,,,,,,,,,,,,,,,,,,,,,,,,,,,,,,,,,,,,,,,,,,,,,,,,,,,,,,,,,,,,,,,,,,,,,,,,,,,,,,,,,,,,,,,,,,,,,1139.4860319606705,None,1139.986751370824,None,1139.986751370824,None,right,0,1.5380049341983977,1139.986751370824,None,,,,,,,,,,,,,1141.5367697810534,None,,,,,,,,,,,,,,,,,,,,,,,,,,,,,,,,,1134.4957752694818,None,1134.4957752694818,None,1134.995855132669,None,1138.9965639585453,1138.9965639585453,0.009869165496638743,None,1138.9965639585453,1138.9965639585453,1143.0372975195583,None,1143.0372975195583,None,None,0.007832814596440585,None,,NENA_031,001,2021_Feb_28_1026,test7,3.2.4,99.99140502215518,
180,35,Staketet som löper runt hela odlingen för att hålla obehöriga på avstånd är för högt för nyfikna rådjur. ,15,,0,,cor,1,no,181,199,,,,,,,,,,,,,0,53,53,53,,,,,,,,,,,,,,,,,,,,,,,,,,,,,,,,,,,,,,,,,,,,,,,,,,,,,,,,,,,,,,,,,,,,,,,,,,,,,,,,,,,,,,,,,,,,,1153.5385979744897,None,1154.0393173846442,None,1154.0393173846442,None,left,1,1.5892376497513396,1154.0393173846442,None,,,,,,,,,,,,,1155.6400399380082,None,,,,,,,,,,,,,,,,,,,,,,,,,,,,,,,,,1143.0473142876208,None,1143.0473142876208,None,1143.5473970374287,None,1153.0491270857437,1153.0491270857437,0.009866599611086713,None,1153.0491270857437,1153.0491270857437,1157.1398851509643,None,1157.1398851509643,None,None,0.007833135333385144,None,,NENA_031,001,2021_Feb_28_1026,test7,3.2.4,99.99140502215518,
140,66,Barn äter ofta mat med för mycket sockret.,3,,4,,inc,1,no,137,138,,,,,,,,,,,,,0,54,54,54,,,,,,,,,,,,,,,,,,,,,,,,,,,,,,,,,,,,,,,,,,,,,,,,,,,,,,,,,,,,,,,,,,,,,,,,,,,,,,,,,,,,,,,,,,,,,1162.6402715091772,None,1163.1409893156524,None,1163.1409893156524,None,left,0,2.023302730872274,1163.1409893156524,None,,,,,,,,,,,,,1165.1811239348372,None,,,,,,,,,,,,,,,,,,,,,,,,,,,,,,,,,1157.1499272571455,None,1157.1499272571455,None,1157.6500122521038,None,1162.1507871495323,1162.1507871495323,0.009868524026387604,None,1162.1507871495323,1162.1507871495323,1166.681558980728,None,1166.681558980728,None,None,0.008135268352816638,None,,NENA_031,001,2021_Feb_28_1026,test7,3.2.4,99.99140502215518,
170,92,Seminariet var för anspråksfull för de flesta.  ,4,,0,,inc,1,no,174,199,,,,,,,,,,,,,0,55,55,55,,,,,,,,,,,,,,,,,,,,,,,,,,,,,,,,,,,,,,,,,,,,,,,,,,,,,,,,,,,,,,,,,,,,,,,,,,,,,,,,,,,,,,,,,,,,,1171.681932830249,None,1172.1826669942448,None,1172.1826669942448,None,left,0,2.16573664007592,1172.1826669942448,None,,,,,,,,,,,,,1174.3627802909205,None,,,,,,,,,,,,,,,,,,,,,,,,,,,,,,,,,1166.6915943514596,None,1166.6915943514596,None,1167.1917059674797,None,1171.1924667525382,1171.1924667525382,0.009857939748144418,None,1171.1924667525382,1171.1924667525382,1175.8632871816058,None,1175.8632871816058,None,None,0.008633050144453591,None,,NENA_031,001,2021_Feb_28_1026,test7,3.2.4,99.99140502215518,
160,6,Det svenska landslaget spelade en historisk match som de öldrickande gubbarna i restaurangen skulle inte glömma.,14,,15,,inc,1,no,163,164,,,,,,,,,,,,,0,56,56,56,,,,,,,,,,,,,,,,,,,,,,,,,,,,,,,,,,,,,,,,,,,,,,,,,,,,,,,,,,,,,,,,,,,,,,,,,,,,,,,,,,,,,,,,,,,,,1185.3644282308987,None,1185.865137698247,None,1185.865137698247,None,right,1,2.3388829160776368,1185.865137698247,None,,,,,,,,,,,,,1188.2153862042596,None,,,,,,,,,,,,,,,,,,,,,,,,,,,,,,,,,1175.873307157024,None,1175.873307157024,None,1176.3733838128546,None,1184.8749682471662,1184.8749682471662,0.009863071518338984,None,1184.8749682471662,1184.8749682471662,1189.7158218916225,None,1189.7158218916225,None,None,0.00858237390548311,None,,NENA_031,001,2021_Feb_28_1026,test7,3.2.4,99.99140502215518,
160,9,Arbetarna på lastfartyget såg en risk med bygget som många av de övriga arbetarna nere vid hamnen inte hade påtalat.,18,,19,,cor,1,no,161,162,,,,,,,,,,,,,0,57,57,57,,,,,,,,,,,,,,,,,,,,,,,,,,,,,,,,,,,,,,,,,,,,,,,,,,,,,,,,,,,,,,,,,,,,,,,,,,,,,,,,,,,,,,,,,,,,,1201.2073187394317,None,1201.7080137736739,None,1201.7080137736739,None,left,1,1.1999235366110952,1201.7080137736739,None,,,,,,,,,,,,,1202.9179545273764,None,,,,,,,,,,,,,,,,,,,,,,,,,,,,,,,,,1189.7258421877768,None,1189.7258421877768,None,1190.2259198058136,None,1200.7178558690784,1200.7178558690784,0.009868203291262034,None,1200.7178558690784,1200.7178558690784,1204.418504075909,None,1204.418504075909,None,None,0.008752043086133199,None,,NENA_031,001,2021_Feb_28_1026,test7,3.2.4,99.99140502215518,
170,87,Träslaget var för mjukt för att kunna användas. ,4,,0,,cor,1,no,173,199,,,,,,,,,,,,,0,58,58,58,,,,,,,,,,,,,,,,,,,,,,,,,,,,,,,,,,,,,,,,,,,,,,,,,,,,,,,,,,,,,,,,,,,,,,,,,,,,,,,,,,,,,,,,,,,,,1209.9188930000073,None,1210.419600222206,None,1210.419600222206,None,left,1,1.6159889307700723,1210.419600222206,None,,,,,,,,,,,,,1212.0496335274001,None,,,,,,,,,,,,,,,,,,,,,,,,,,,,,,,,,1204.428518919557,None,1204.428518919557,None,1204.928597179065,None,1209.4294221112623,1209.4294221112623,0.009869165497548238,None,1209.4294221112623,1209.4294221112623,1213.550175699011,None,1213.550175699011,None,None,0.0078469269674315,None,,NENA_031,001,2021_Feb_28_1026,test7,3.2.4,99.99140502215518,
170,44,Fåret är nästan frisk efter behandlingen.  ,4,,0,,inc,1,no,174,199,,,,,,,,,,,,,0,59,59,59,,,,,,,,,,,,,,,,,,,,,,,,,,,,,,,,,,,,,,,,,,,,,,,,,,,,,,,,,,,,,,,,,,,,,,,,,,,,,,,,,,,,,,,,,,,,,1218.0504218957276,None,1218.5511117981978,None,1218.5511117981978,None,left,0,1.7323896861671528,1218.5511117981978,None,,,,,,,,,,,,,1220.3011769075438,None,,,,,,,,,,,,,,,,,,,,,,,,,,,,,,,,,1213.5602101075365,None,1213.5602101075365,None,1214.0602851596877,None,1217.5609131601705,1217.5609131601705,0.009851525034719089,None,1217.5609131601705,1217.5609131601705,1221.8016860433786,None,1221.8016860433786,None,None,0.008017558354367793,None,,NENA_031,001,2021_Feb_28_1026,test7,3.2.4,99.99140502215518,
150,105,Säljaren gav en ursäkt som pojken inte kunde godta.  ,6,,7,,cor,1,no,151,152,,,,,,,,,,,,,0,60,60,60,,,,,,,,,,,,,,,,,,,,,,,,,,,,,,,,,,,,,,,,,,,,,,,,,,,,,,,,,,,,,,,,,,,,,,,,,,,,,,,,,,,,,,,,,,,,,1227.8021683015631,None,1228.3028861080393,None,1228.3028861080393,None,left,1,1.0284704243204033,1228.3028861080393,None,,,,,,,,,,,,,1229.3431089295382,None,,,,,,,,,,,,,,,,,,,,,,,,,,,,,,,,,1221.8117188482256,None,1221.8117188482256,None,1222.3117653549007,None,1227.3127099215098,1227.3127099215098,0.009862750784122909,None,1227.3127099215098,1227.3127099215098,1230.8433217055958,None,1230.8433217055958,None,None,0.008275750585198693,None,,NENA_031,001,2021_Feb_28_1026,test7,3.2.4,99.99140502215518,
140,64,Lärare ger ofta betyg utan att diskuterar dem.,3,,4,,inc,1,no,137,138,,,,,,,,,,,,,0,61,61,61,,,,,,,,,,,,,,,,,,,,,,,,,,,,,,,,,,,,,,,,,,,,,,,,,,,,,,,,,,,,,,,,,,,,,,,,,,,,,,,,,,,,,,,,,,,,,1236.3437398166416,None,1236.8444370960333,None,1236.8444370960333,None,right,1,2.054883970656192,1236.8444370960333,None,,,,,,,,,,,,,1238.9145778220254,None,,,,,,,,,,,,,,,,,,,,,,,,,,,,,,,,,1230.8533432846925,None,1230.8533432846925,None,1231.353419619787,None,1235.8542637961245,1235.8542637961245,0.009869486233583302,None,1235.8542637961245,1235.8542637961245,1240.4150975421385,None,1240.4150975421385,None,None,0.007676295578676218,None,,NENA_031,001,2021_Feb_28_1026,test7,3.2.4,99.99140502215518,
150,26,Media får information som privatpersoner kan inte få tag på. ,6,,7,,inc,1,no,153,154,,,,,,,,,,,,,0,62,62,62,,,,,,,,,,,,,,,,,,,,,,,,,,,,,,,,,,,,,,,,,,,,,,,,,,,,,,,,,,,,,,,,,,,,,,,,,,,,,,,,,,,,,,,,,,,,,1246.9156561354175,None,1247.4163627161433,None,1247.4163627161433,None,right,1,1.4106148118307829,1247.4163627161433,None,,,,,,,,,,,,,1248.8368286039786,None,,,,,,,,,,,,,,,,,,,,,,,,,,,,,,,,,1240.4250928209085,None,1240.4250928209085,None,1240.9251771743957,None,1246.4261948687417,1246.4261948687417,0.009870127704743936,None,1246.4261948687417,1246.4261948687417,1250.3368903135256,None,1250.3368903135256,None,None,0.00804834898099216,None,,NENA_031,001,2021_Feb_28_1026,test7,3.2.4,99.99140502215518,
170,11,Konstverket är förmodligen falskt och undersöks därför grundligt. ,4,,0,,cor,1,no,173,199,,,,,,,,,,,,,0,63,63,63,,,,,,,,,,,,,,,,,,,,,,,,,,,,,,,,,,,,,,,,,,,,,,,,,,,,,,,,,,,,,,,,,,,,,,,,,,,,,,,,,,,,,,,,,,,,,1255.8372891804302,None,1256.3379931952713,None,1256.3379931952713,None,left,1,2.0489064195890023,1256.3379931952713,None,,,,,,,,,,,,,1258.3982106797284,None,,,,,,,,,,,,,,,,,,,,,,,,,,,,,,,,,1250.3469186280727,None,1250.3469186280727,None,1250.8469885484528,None,1255.347817329478,1255.347817329478,0.009864354461569746,None,1255.347817329478,1255.347817329478,1259.898630971778,None,1259.898630971778,None,None,0.008313276662192948,None,,NENA_031,001,2021_Feb_28_1026,test7,3.2.4,99.99140502215518,
150,40,Nätet sprider information och tidningar inte kan kontrollera detta.  ,6,,7,,inc,1,no,157,158,,,,,,,,,,,,,0,64,64,64,,,,,,,,,,,,,,,,,,,,,,,,,,,,,,,,,,,,,,,,,,,,,,,,,,,,,,,,,,,,,,,,,,,,,,,,,,,,,,,,,,,,,,,,,,,,,1265.8991122677553,None,1266.3998287912882,None,1266.3998287912882,None,left,0,1.274987555455482,1266.3998287912882,None,,,,,,,,,,,,,1267.6897764215646,None,,,,,,,,,,,,,,,,,,,,,,,,,,,,,,,,,1259.9086349104118,None,1259.9086349104118,None,1260.4087298481763,None,1265.409626304432,1265.409626304432,0.00986820329035254,None,1265.409626304432,1265.409626304432,1269.1903522704238,None,1269.1903522704238,None,None,0.007768988193674886,None,,NENA_031,001,2021_Feb_28_1026,test7,3.2.4,99.99140502215518,
170,99,Nätet var redan färdigt och spindeln väntade på bytet. ,4,,0,,cor,1,no,173,199,,,,,,,,,,,,,0,65,65,65,,,,,,,,,,,,,,,,,,,,,,,,,,,,,,,,,,,,,,,,,,,,,,,,,,,,,,,,,,,,,,,,,,,,,,,,,,,,,,,,,,,,,,,,,,,,,1275.1908358115506,None,1275.6915302043217,None,1275.6915302043217,None,left,1,1.839072150134598,1275.6915302043217,None,,,,,,,,,,,,,1277.541999697225,None,,,,,,,,,,,,,,,,,,,,,,,,,,,,,,,,,1269.200320928132,None,1269.200320928132,None,1269.700427412381,None,1274.7013459993996,1274.7013459993996,0.009866278876870638,None,1274.7013459993996,1274.7013459993996,1279.0421528164447,None,1279.0421528164447,None,None,0.008160927210155933,None,,NENA_031,001,2021_Feb_28_1026,test7,3.2.4,99.99140502215518,
140,14,Skräddare syr ofta kläder åt rika människa.,3,,4,,inc,1,no,131,132,,,,,,,,,,,,,0,66,66,66,,,,,,,,,,,,,,,,,,,,,,,,,,,,,,,,,,,,,,,,,,,,,,,,,,,,,,,,,,,,,,,,,,,,,,,,,,,,,,,,,,,,,,,,,,,,,1284.0424384636508,None,1284.5431597982188,None,1284.5431597982188,None,right,1,0.491260593899824,1284.5431597982188,None,,,,,,,,,,,,,1285.0529380672215,None,,,,,,,,,,,,,,,,,,,,,,,,,,,,,,,,,1279.0521525855147,None,1279.0521525855147,None,1279.5521901115908,None,1283.552968216376,1283.552968216376,0.009862430048087845,None,1283.552968216376,1283.552968216376,1286.553496596353,None,1286.553496596353,None,None,0.00819428372051334,None,,NENA_031,001,2021_Feb_28_1026,test7,3.2.4,99.99140502215518,
170,24,Vinet är ganska dyr att importera.  ,4,,0,,inc,1,no,174,199,,,,,,,,,,,,,0,67,67,67,,,,,,,,,,,,,,,,,,,,,,,,,,,,,,,,,,,,,,,,,,,,,,,,,,,,,,,,,,,,,,,,,,,,,,,,,,,,,,,,,,,,,,,,,,,,,1291.0537347746767,None,1291.5544314125973,None,1291.5544314125973,None,right,1,3.0718970746338528,1291.5544314125973,None,,,,,,,,,,,,,1294.6446713613823,None,,,,,,,,,,,,,,,,,,,,,,,,,,,,,,,,,1286.5634748761322,None,1286.5634748761322,None,1287.0636015667296,None,1290.564218982934,1290.564218982934,0.009866599611086713,None,1290.564218982934,1290.564218982934,1296.1452414369983,None,1296.1452414369983,None,None,0.007543831738985318,None,,NENA_031,001,2021_Feb_28_1026,test7,3.2.4,99.99140502215518,
170,36,Köket är för sval och behöver värmas upp. ,4,,0,,inc,1,no,174,199,,,,,,,,,,,,,0,68,68,68,,,,,,,,,,,,,,,,,,,,,,,,,,,,,,,,,,,,,,,,,,,,,,,,,,,,,,,,,,,,,,,,,,,,,,,,,,,,,,,,,,,,,,,,,,,,,1301.6456348513966,None,1302.146358751851,None,1302.146358751851,None,right,1,2.5598043768868592,1302.146358751851,None,,,,,,,,,,,,,1304.7171335723024,None,,,,,,,,,,,,,,,,,,,,,,,,,,,,,,,,,1296.1552598087392,None,1296.1552598087392,None,1296.6553393511904,None,1301.1561395867384,1301.1561395867384,0.009866920347121777,None,1301.1561395867384,1301.1561395867384,1306.217091684222,None,1306.217091684222,None,None,0.007985484787241148,None,,NENA_031,001,2021_Feb_28_1026,test7,3.2.4,99.99140502215518,
150,109,Konstapeln använde förhörsrummet som kollegan inte ville använda.  ,6,,7,,cor,1,no,151,152,,,,,,,,,,,,,0,69,69,69,,,,,,,,,,,,,,,,,,,,,,,,,,,,,,,,,,,,,,,,,,,,,,,,,,,,,,,,,,,,,,,,,,,,,,,,,,,,,,,,,,,,,,,,,,,,,1311.717478683906,None,1312.21820482951,None,1312.21820482951,None,left,1,0.7518439094865244,1312.21820482951,None,,,,,,,,,,,,,1312.9881215536952,None,,,,,,,,,,,,,,,,,,,,,,,,,,,,,,,,,1306.227082793428,None,1306.227082793428,None,1306.7271995412193,None,1311.228021586795,1311.228021586795,0.009862750783213414,None,1311.228021586795,1311.228021586795,1314.4885828999127,None,1314.4885828999127,None,None,0.008137834239278163,None,,NENA_031,001,2021_Feb_28_1026,test7,3.2.4,99.99140502215518,
130,51,Snickare tillverkar ofta möbler från gammalt trä.,3,,4,,cor,1,no,135,136,,,,,,,,,,,,,0,70,70,70,,,,,,,,,,,,,,,,,,,,,,,,,,,,,,,,,,,,,,,,,,,,,,,,,,,,,,,,,,,,,,,,,,,,,,,,,,,,,,,,,,,,,,,,,,,,,1319.4889086390804,None,1319.9896200308422,None,1319.9896200308422,None,left,1,1.9802667366302558,1319.9896200308422,None,,,,,,,,,,,,,1321.9797827464727,None,,,,,,,,,,,,,,,,,,,,,,,,,,,,,,,,,1314.4986012716527,None,1314.4986012716527,None,1314.998640080671,None,1318.9994476931406,1318.9994476931406,0.009863071519248479,None,1318.9994476931406,1318.9994476931406,1323.4802331876767,None,1323.4802331876767,None,None,0.008465626115139457,None,,NENA_031,001,2021_Feb_28_1026,test7,3.2.4,99.99140502215518,
180,44,Bröllopet som för att vara en vuxenfest avslutades alldeles för tidigt var ändå jättelyckad enligt de flesta gästerna. ,14,,0,,inc,1,no,182,199,,,,,,,,,,,,,0,71,71,71,,,,,,,,,,,,,,,,,,,,,,,,,,,,,,,,,,,,,,,,,,,,,,,,,,,,,,,,,,,,,,,,,,,,,,,,,,,,,,,,,,,,,,,,,,,,,1333.981555773371,None,1334.4822421477484,None,1334.4822421477484,None,right,1,2.4313728257329785,1334.4822421477484,None,,,,,,,,,,,,,1336.9323927652295,None,,,,,,,,,,,,,,,,,,,,,,,,,,,,,,,,,1323.4902586156022,None,1323.4902586156022,None,1323.990349704538,None,1333.492089374925,1333.492089374925,0.009869165497548238,None,1333.492089374925,1333.492089374925,1338.4329692555598,None,1338.4329692555598,None,None,0.0075633966180248535,None,,NENA_031,001,2021_Feb_28_1026,test7,3.2.4,99.99140502215518,
150,115,Målvakten gjorde misstag och domaren kunde inte ignorera dem.  ,6,,7,,cor,1,no,155,156,,,,,,,,,,,,,0,72,72,72,,,,,,,,,,,,,,,,,,,,,,,,,,,,,,,,,,,,,,,,,,,,,,,,,,,,,,,,,,,,,,,,,,,,,,,,,,,,,,,,,,,,,,,,,,,,,1344.4334572869866,None,1344.9341747727267,None,1344.9341747727267,None,right,0,2.3232688611824415,1344.9341747727267,None,,,,,,,,,,,,,1347.2743464048099,None,,,,,,,,,,,,,,,,,,,,,,,,,,,,,,,,,1338.4430010981987,None,1338.4430010981987,None,1338.9430607550375,None,1343.9439825494128,1343.9439825494128,0.009870127703834441,None,1343.9439825494128,1343.9439825494128,1348.7748635590374,None,1348.7748635590374,None,None,0.00803616102439264,None,,NENA_031,001,2021_Feb_28_1026,test7,3.2.4,99.99140502215518,
150,49,Regeringen presenterar förslag som riksdagen inte vill diskutera.  ,6,,7,,cor,1,no,151,152,,,,,,,,,,,,,0,73,73,73,,,,,,,,,,,,,,,,,,,,,,,,,,,,,,,,,,,,,,,,,,,,,,,,,,,,,,,,,,,,,,,,,,,,,,,,,,,,,,,,,,,,,,,,,,,,,1354.2752524831358,None,1354.775975100647,None,1354.775975100647,None,left,1,2.8093720251763443,1354.775975100647,None,,,,,,,,,,,,,1357.5962989667178,None,,,,,,,,,,,,,,,,,,,,,,,,,,,,,,,,,1348.7848822515134,None,1348.7848822515134,None,1349.2849627561718,None,1353.785791216461,1353.785791216461,0.009864995933639875,None,1353.785791216461,1353.785791216461,1359.0967474835074,None,1359.0967474835074,None,None,0.008617654831141408,None,,NENA_031,001,2021_Feb_28_1026,test7,3.2.4,99.99140502215518,
160,25,Filosofen med de tjocka glasögonen drog en fullständigt absurd slutsats som de två psykologerna bland deltagarna i seminariet inte kunde förstå.,19,,20,,cor,1,no,161,162,,,,,,,,,,,,,0,74,74,74,,,,,,,,,,,,,,,,,,,,,,,,,,,,,,,,,,,,,,,,,,,,,,,,,,,,,,,,,,,,,,,,,,,,,,,,,,,,,,,,,,,,,,,,,,,,,1371.0984071624125,None,1371.599020088318,None,1371.599020088318,None,left,1,0.7140189080100754,1371.599020088318,None,,,,,,,,,,,,,1372.3289497317364,None,,,,,,,,,,,,,,,,,,,,,,,,,,,,,,,,,1359.1067421208072,None,1359.1067421208072,None,1359.606838020779,None,1370.6088881633132,1370.6088881633132,0.00986210931205278,None,1370.6088881633132,1370.6088881633132,1373.8294309635671,None,1373.8294309635671,None,None,0.007585206644762366,None,,NENA_031,001,2021_Feb_28_1026,test7,3.2.4,99.99140502215518,
170,48,Arbetet var ganska välbetald och det fanns många sökande. ,4,,0,,inc,1,no,174,199,,,,,,,,,,,,,0,75,75,75,,,,,,,,,,,,,,,,,,,,,,,,,,,,,,,,,,,,,,,,,,,,,,,,,,,,,,,,,,,,,,,,,,,,,,,,,,,,,,,,,,,,,,,,,,,,,1379.829928617065,None,1380.3306191610063,None,1380.3306191610063,None,left,0,1.4703239302189104,1380.3306191610063,None,,,,,,,,,,,,,1381.8112338958608,None,,,,,,,,,,,,,,,,,,,,,,,,,,,,,,,,,1373.839439071765,None,1373.839439071765,None,1374.3395330473222,None,1379.340443615948,1379.340443615948,0.009869165496638743,None,1379.340443615948,1379.340443615948,1383.3111923285155,None,1383.3111923285155,None,None,0.007955014895742352,None,,NENA_031,001,2021_Feb_28_1026,test7,3.2.4,99.99140502215518,
160,59,Många europeiska klädaffärer bedriver en omoralisk utlandshandel som konsumenterna i de relativt välbärgade länderna inte vill förändra.,15,,16,,cor,1,no,161,162,,,,,,,,,,,,,0,76,76,76,,,,,,,,,,,,,,,,,,,,,,,,,,,,,,,,,,,,,,,,,,,,,,,,,,,,,,,,,,,,,,,,,,,,,,,,,,,,,,,,,,,,,,,,,,,,,1393.3123853369907,None,1393.8130893518319,None,1393.8130893518319,None,left,1,3.9796586217598815,1393.8130893518319,None,,,,,,,,,,,,,1397.8038736532308,None,,,,,,,,,,,,,,,,,,,,,,,,,,,,,,,,,1383.3212023611277,None,1383.3212023611277,None,1383.8212350761687,None,1392.8229025810242,1392.8229025810242,0.009868203291262034,None,1392.8229025810242,1392.8229025810242,1399.3040944476802,None,1399.3040944476802,None,None,0.008207754619434127,None,,NENA_031,001,2021_Feb_28_1026,test7,3.2.4,99.99140502215518,
160,13,Den egyptiska bomullen uppvisade en otroligt hög kvalitet som de nyfikna besökarna på plantagen i norr inte kunde sluta beundra.,17,,18,,cor,1,no,161,162,,,,,,,,,,,,,0,77,77,77,,,,,,,,,,,,,,,,,,,,,,,,,,,,,,,,,,,,,,,,,,,,,,,,,,,,,,,,,,,,,,,,,,,,,,,,,,,,,,,,,,,,,,,,,,,,,1410.80555879855,None,1411.3062855856251,None,1411.3062855856251,None,left,1,1.3341161422422374,1411.3062855856251,None,,,,,,,,,,,,,1412.656475076271,None,,,,,,,,,,,,,,,,,,,,,,,,,,,,,,,,,1399.3140736896667,None,1399.3140736896667,None,1399.8141734384662,None,1410.3161033051174,1410.3161033051174,0.00986210931205278,None,1410.3161033051174,1410.3161033051174,1414.156786959657,None,1414.156786959657,None,None,0.008303975327180524,None,,NENA_031,001,2021_Feb_28_1026,test7,3.2.4,99.99140502215518,
150,30,Föräldrarna drar skämt som barnen kan inte förstå.  ,6,,7,,inc,1,no,153,154,,,,,,,,,,,,,0,78,78,78,,,,,,,,,,,,,,,,,,,,,,,,,,,,,,,,,,,,,,,,,,,,,,,,,,,,,,,,,,,,,,,,,,,,,,,,,,,,,,,,,,,,,,,,,,,,,1419.6571960901038,None,1420.1578946524378,None,1420.1578946524378,None,right,1,1.3623707114429635,1420.1578946524378,None,,,,,,,,,,,,,1421.5378387931105,None,,,,,,,,,,,,,,,,,,,,,,,,,,,,,,,,,1414.1667976337403,None,1414.1667976337403,None,1414.6668694785349,None,1419.1677345026928,1419.1677345026928,0.00986820329035254,None,1419.1677345026928,1419.1677345026928,1423.0384172078552,None,1423.0384172078552,None,None,0.007567886916149291,None,,NENA_031,001,2021_Feb_28_1026,test7,3.2.4,99.99140502215518,
180,37,Tavlan som för en liten stund sedan auktionerades ut till en beslutsam konstkännare var otroligt vacker men kostade en förmögenhet. ,16,,0,,cor,1,no,181,199,,,,,,,,,,,,,0,79,79,79,,,,,,,,,,,,,,,,,,,,,,,,,,,,,,,,,,,,,,,,,,,,,,,,,,,,,,,,,,,,,,,,,,,,,,,,,,,,,,,,,,,,,,,,,,,,,1434.5399008028653,None,1435.0406086665353,None,1435.0406086665353,None,left,1,1.8314909206146694,1435.0406086665353,None,,,,,,,,,,,,,1436.8906393930138,None,,,,,,,,,,,,,,,,,,,,,,,,,,,,,,,,,1423.0483813752635,None,1423.0483813752635,None,1423.5485372528092,None,1434.0504680816666,1434.0504680816666,0.00986499593273038,None,1434.0504680816666,1434.0504680816666,1438.391206261274,None,1438.391206261274,None,None,0.00772087784116593,None,,NENA_031,001,2021_Feb_28_1026,test7,3.2.4,99.99140502215518,
170,15,Modemet är för gammalt för att repareras.  ,4,,0,,cor,1,no,173,199,,,,,,,,,,,,,0,80,80,80,,,,,,,,,,,,,,,,,,,,,,,,,,,,,,,,,,,,,,,,,,,,,,,,,,,,,,,,,,,,,,,,,,,,,,,,,,,,,,,,,,,,,,,,,,,,,1443.3915320004417,None,1443.8922334493973,None,1443.8922334493973,None,left,1,3.075844048043109,1443.8922334493973,None,,,,,,,,,,,,,1446.9825519784263,None,,,,,,,,,,,,,,,,,,,,,,,,,,,,,,,,,1438.4012239915428,None,1438.4012239915428,None,1438.9013125145939,None,1442.9020604702246,1442.9020604702246,0.009868524024568615,None,1442.9020604702246,1442.9020604702246,1448.4830344931993,None,1448.4830344931993,None,None,0.008159002794855041,None,,NENA_031,001,2021_Feb_28_1026,test7,3.2.4,99.99140502215518,
170,117,Lampan är tillräckligt stark för att man ska kunna se.,4,,0,,cor,1,no,171,199,,,,,,,,,,,,,0,81,81,81,,,,,,,,,,,,,,,,,,,,,,,,,,,,,,,,,,,,,,,,,,,,,,,,,,,,,,,,,,,,,,,,,,,,,,,,,,,,,,,,,,,,,,,,,,,,,1454.9836386309462,None,1455.4843256467957,None,1455.4843256467957,None,left,1,2.2994689899906007,1455.4843256467957,None,,,,,,,,,,,,,1457.7945139443045,None,,,,,,,,,,,,,,,,,,,,,,,,,,,,,,,,,1448.4929922458941,None,1448.4929922458941,None,1448.993107069271,None,1454.494184741192,1454.494184741192,0.009869806968708872,None,1454.494184741192,1454.494184741192,1459.2950384754536,None,1459.2950384754536,None,None,0.007691049422646756,None,,NENA_031,001,2021_Feb_28_1026,test7,3.2.4,99.99140502215518,
150,57,Utvärderingen gav resultat som forskarna inte kunde värdera.  ,6,,7,,cor,1,no,151,152,,,,,,,,,,,,,0,82,82,82,,,,,,,,,,,,,,,,,,,,,,,,,,,,,,,,,,,,,,,,,,,,,,,,,,,,,,,,,,,,,,,,,,,,,,,,,,,,,,,,,,,,,,,,,,,,,1464.795432852059,None,1465.2961375083714,None,1465.2961375083714,None,left,1,1.455531920899375,1465.2961375083714,None,,,,,,,,,,,,,1466.7764074523575,None,,,,,,,,,,,,,,,,,,,,,,,,,,,,,,,,,1459.3050478665946,None,1459.3050478665946,None,1459.8051203528603,None,1464.305951699771,1464.305951699771,0.00986788255340798,None,1464.305951699771,1464.305951699771,1468.2766545471345,None,1468.2766545471345,None,None,0.008991311911813682,None,,NENA_031,001,2021_Feb_28_1026,test7,3.2.4,99.99140502215518,
160,4,Det nya lagförslaget innebär stora praktiska förändringar som de mer erfarna medlemmarna i partiet kan inte ställa sig bakom.,15,,16,,inc,1,no,163,164,,,,,,,,,,,,,0,83,83,83,,,,,,,,,,,,,,,,,,,,,,,,,,,,,,,,,,,,,,,,,,,,,,,,,,,,,,,,,,,,,,,,,,,,,,,,,,,,,,,,,,,,,,,,,,,,,1479.2780791267778,None,1479.7787985369323,None,1479.7787985369323,None,right,1,1.8365255087510377,1479.7787985369323,None,,,,,,,,,,,,,1481.6293398746311,None,,,,,,,,,,,,,,,,,,,,,,,,,,,,,,,,,1468.286689276395,None,1468.286689276395,None,1468.786771705467,None,1478.788609200239,1478.788609200239,0.009867561818282411,None,1478.788609200239,1478.788609200239,1483.129433657747,None,1483.129433657747,None,None,0.00816285162272834,None,,NENA_031,001,2021_Feb_28_1026,test7,3.2.4,99.99140502215518,
170,61,Elden var ganska farlig för de närliggande husen. ,4,,0,,cor,1,no,171,199,,,,,,,,,,,,,0,84,84,84,,,,,,,,,,,,,,,,,,,,,,,,,,,,,,,,,,,,,,,,,,,,,,,,,,,,,,,,,,,,,,,,,,,,,,,,,,,,,,,,,,,,,,,,,,,,,1488.6297808862055,None,1489.1305102391661,None,1489.1305102391661,None,left,1,6.20459665562521,1489.1305102391661,None,,,,,,,,,,,,,1495.3513633832736,None,,,,,,,,,,,,,,,,,,,,,,,,,,,,,,,,,1483.1394080886976,None,1483.1394080886976,None,1483.6394744809859,None,1488.1403180158522,1488.1403180158522,0.00986499593273038,None,1488.1403180158522,1488.1403180158522,1496.8518372381836,None,1496.8518372381836,None,None,0.00798772993584862,None,,NENA_031,001,2021_Feb_28_1026,test7,3.2.4,99.99140502215518,
180,43,Myntet som på den här tiden faktiskt räckte till ett par nya skor såg fantastiskt blankt ut i solskenet. ,16,,0,,cor,1,no,181,199,,,,,,,,,,,,,0,85,85,85,,,,,,,,,,,,,,,,,,,,,,,,,,,,,,,,,,,,,,,,,,,,,,,,,,,,,,,,,,,,,,,,,,,,,,,,,,,,,,,,,,,,,,,,,,,,,1507.8532967780175,None,1508.354007207572,None,1508.354007207572,None,left,1,1.652871931521986,1508.354007207572,None,,,,,,,,,,,,,1510.0240798734503,None,,,,,,,,,,,,,,,,,,,,,,,,,,,,,,,,,1496.8619030788059,None,1496.8619030788059,None,1497.3619948092137,None,1507.363814022051,1507.363814022051,0.009867241082247347,None,1507.363814022051,1507.363814022051,1511.5245732932376,None,1511.5245732932376,None,None,0.008118590099002176,None,,NENA_031,001,2021_Feb_28_1026,test7,3.2.4,99.99140502215518,
180,24,Kaffet som hade hällts upp i de små fina kaffekopparna på middagsbordet var för varm att drickas utan mjölk. ,15,,0,,inc,1,no,182,199,,,,,,,,,,,,,0,86,86,86,,,,,,,,,,,,,,,,,,,,,,,,,,,,,,,,,,,,,,,,,,,,,,,,,,,,,,,,,,,,,,,,,,,,,,,,,,,,,,,,,,,,,,,,,,,,,1522.5259465551708,None,1523.0266768703377,None,1523.0266768703377,None,left,0,1.1239835885962748,1523.0266768703377,None,,,,,,,,,,,,,1524.1666600381286,None,,,,,,,,,,,,,,,,,,,,,,,,,,,,,,,,,1511.534598400427,None,1511.534598400427,None,1512.0346702452216,None,1522.0364910617382,1522.0364910617382,0.009868203289443045,None,1522.0364910617382,1522.0364910617382,1525.6671749472066,None,1525.6671749472066,None,None,0.00814007938879513,None,,NENA_031,001,2021_Feb_28_1026,test7,3.2.4,99.99140502215518,
160,52,Tre promenader i veckan har positiva effekter på hjärnan som många människor med lätt eller medelsvår depression bör inte vara utan.,18,,19,,inc,1,yes,163,164,,,,,,,,,,,,,0,87,87,87,,,,,,,,,,,,,,,,,,,,,,,,,,,,,,,,,,,,,,,,,,,,,,,,,,,,,,,,,,,,,,,,,,,,,,,,,,,,,,,,,,,,,,,,,,,,,1537.6687396883472,None,1538.1694414580388,None,1538.1694414580388,None,right,1,2.0129602877896104,1538.1694414580388,None,,,,,,,,,,,,,1540.1995473136458,None,,,,,,,,,,,,,,,,,,,,,,,,,,,,,,,,,1525.6771737540703,None,1525.6771737540703,None,1526.1772266754588,None,1537.1792575738527,1537.1792575738527,0.009860826369731512,None,1537.1792575738527,1537.1792575738527,1541.6997666968582,None,1541.6997666968582,None,space,0.008431307394857868,None,12.650377890789969,NENA_031,001,2021_Feb_28_1026,test7,3.2.4,99.99140502215518,
170,51,Mörkret är särskilt långvarigt i Finland.  ,4,,0,,cor,1,no,173,199,,,,,,,,,,,,,0,88,88,88,,,,,,,,,,,,,,,,,,,,,,,,,,,,,,,,,,,,,,,,,,,,,,,,,,,,,,,,,,,,,,,,,,,,,,,,,,,,,,,,,,,,,,,,,,,,,1558.8526065548112,None,1559.3533233990802,None,1559.3533233990802,None,left,1,1.5727576084927932,1559.3533233990802,None,,,,,,,,,,,,,1560.9433144569684,None,,,,,,,,,,,,,,,,,,,,,,,,,,,,,,,,,1554.36237616395,None,1554.36237616395,None,1554.8624794408424,None,1558.363124440316,1558.363124440316,0.009864675196695316,None,1558.363124440316,1558.363124440316,1562.443869137272,None,1562.443869137272,None,None,0.008358179658898734,None,,NENA_031,001,2021_Feb_28_1026,test7,3.2.4,99.99140502215518,
170,6,Mangon var mycket saftigt men smakade inget.  ,4,,0,,inc,1,no,172,199,,,,,,,,,,,,,0,89,89,89,,,,,,,,,,,,,,,,,,,,,,,,,,,,,,,,,,,,,,,,,,,,,,,,,,,,,,,,,,,,,,,,,,,,,,,,,,,,,,,,,,,,,,,,,,,,,1567.4441794811264,None,1567.9449097962943,None,1567.9449097962943,None,left,0,0.9090986942210293,1567.9449097962943,None,,,,,,,,,,,,,1568.864822735798,None,,,,,,,,,,,,,,,,,,,,,,,,,,,,,,,,,1562.4538685856069,None,1562.4538685856069,None,1562.953952618358,None,1566.95469672516,1566.95469672516,0.00986788255522697,None,1566.95469672516,1566.95469672516,1570.3653094201359,None,1570.3653094201359,None,None,0.008594561862082628,None,,NENA_031,001,2021_Feb_28_1026,test7,3.2.4,99.99140502215518,
180,49,Ålen som tidigt rödlistades på grund av det nära förestående utrotningshotet är fortfarande vanlig som julmat.  ,14,,0,,cor,1,no,181,199,,,,,,,,,,,,,0,90,90,90,,,,,,,,,,,,,,,,,,,,,,,,,,,,,,,,,,,,,,,,,,,,,,,,,,,,,,,,,,,,,,,,,,,,,,,,,,,,,,,,,,,,,,,,,,,,,1579.866441809565,None,1580.3671788601823,None,1580.3671788601823,None,left,1,2.4705628783076463,1580.3671788601823,None,,,,,,,,,,,,,1582.8481383859043,None,,,,,,,,,,,,,,,,,,,,,,,,,,,,,,,,,1570.3753297162903,None,1570.3753297162903,None,1570.875388410921,None,1579.376970920819,1579.376970920819,0.009864033726444177,None,1579.376970920819,1579.376970920819,1584.3478527386983,None,1584.3478527386983,None,None,0.008561205349906231,None,,NENA_031,001,2021_Feb_28_1026,test7,3.2.4,99.99140502215518,
140,50,Hundar jagar ofta katter genom trädgård.,3,,4,,inc,1,no,135,136,,,,,,,,,,,,,0,91,91,91,,,,,,,,,,,,,,,,,,,,,,,,,,,,,,,,,,,,,,,,,,,,,,,,,,,,,,,,,,,,,,,,,,,,,,,,,,,,,,,,,,,,,,,,,,,,,1588.8480896340789,None,1589.3487801780211,None,1589.3487801780211,None,right,1,3.136853108185278,1589.3487801780211,None,,,,,,,,,,,,,1592.4990948838804,None,,,,,,,,,,,,,,,,,,,,,,,,,,,,,,,,,1584.3578829776588,None,1584.3578829776588,None,1584.857962199374,None,1588.3586184245978,1588.3586184245978,0.009869165498457733,None,1588.3586184245978,1588.3586184245978,1593.9996328859283,None,1593.9996328859283,None,None,0.007841795196327439,None,,NENA_031,001,2021_Feb_28_1026,test7,3.2.4,99.99140502215518,
170,38,Stugan var lagom rymligt för familjen.  ,4,,0,,inc,1,no,172,199,,,,,,,,,,,,,0,92,92,92,,,,,,,,,,,,,,,,,,,,,,,,,,,,,,,,,,,,,,,,,,,,,,,,,,,,,,,,,,,,,,,,,,,,,,,,,,,,,,,,,,,,,,,,,,,,,1598.4998463676038,None,1599.000537232282,None,1599.000537232282,None,left,0,2.476914727926669,1599.000537232282,None,,,,,,,,,,,,,1601.491173674528,None,,,,,,,,,,,,,,,,,,,,,,,,,,,,,,,,,1594.0096134108571,None,1594.0096134108571,None,1594.5097269512917,None,1598.01036713973,1598.01036713973,0.009869165496638743,None,1598.01036713973,1598.01036713973,1602.9912546282162,None,1602.9912546282162,None,None,0.008089403150734142,None,,NENA_031,001,2021_Feb_28_1026,test7,3.2.4,99.99140502215518,
150,48,Bolagen accepterar risker men bankerna inte är beredda att ta dem. ,6,,7,,inc,1,no,157,158,,,,,,,,,,,,,0,93,93,93,,,,,,,,,,,,,,,,,,,,,,,,,,,,,,,,,,,,,,,,,,,,,,,,,,,,,,,,,,,,,,,,,,,,,,,,,,,,,,,,,,,,,,,,,,,,,1609.9919482512205,None,1610.4926157021928,None,1610.4926157021928,None,left,0,0.5687278852747113,1610.4926157021928,None,,,,,,,,,,,,,1611.072587618576,None,,,,,,,,,,,,,,,,,,,,,,,,,,,,,,,,,1603.001294809983,None,1603.001294809983,None,1603.5013432410724,None,1609.50245170362,1609.50245170362,0.00986499593273038,None,1609.50245170362,1609.50245170362,1612.5730124009247,None,1612.5730124009247,None,None,0.008581411699196906,None,,NENA_031,001,2021_Feb_28_1026,test7,3.2.4,99.99140502215518,
180,14,Flygeln som bandledaren hade bett pianisten att inte använda på konserten var extremt svårstämt och lät väldigt högt. ,14,,0,,inc,1,no,182,199,,,,,,,,,,,,,0,94,94,94,,,,,,,,,,,,,,,,,,,,,,,,,,,,,,,,,,,,,,,,,,,,,,,,,,,,,,,,,,,,,,,,,,,,,,,,,,,,,,,,,,,,,,,,,,,,,1623.074331137791,None,1623.575024568354,None,1623.575024568354,None,left,0,2.598103104977781,1623.575024568354,None,,,,,,,,,,,,,1626.185254369061,None,,,,,,,,,,,,,,,,,,,,,,,,,,,,,,,,,1612.5830294897223,None,1612.5830294897223,None,1613.083106787024,None,1622.5848711540584,1622.5848711540584,0.00986275078230392,None,1622.5848711540584,1622.5848711540584,1627.6857715232895,None,1627.6857715232895,None,None,0.007598356807648088,None,,NENA_031,001,2021_Feb_28_1026,test7,3.2.4,99.99140502215518,
150,75,Artisten övade sången men gitarristen ville inte spela den.  ,6,,7,,cor,1,no,155,156,,,,,,,,,,,,,0,95,95,95,,,,,,,,,,,,,,,,,,,,,,,,,,,,,,,,,,,,,,,,,,,,,,,,,,,,,,,,,,,,,,,,,,,,,,,,,,,,,,,,,,,,,,,,,,,,,1633.686266931637,None,1634.1869735123637,None,1634.1869735123637,None,left,1,4.026088320346389,1634.1869735123637,None,,,,,,,,,,,,,1638.2276113658463,None,,,,,,,,,,,,,,,,,,,,,,,,,,,,,,,,,1627.6957911779728,None,1627.6957911779728,None,1628.1958732863095,None,1633.1967764780138,1633.1967764780138,0.009868844760603679,None,1633.1967764780138,1633.1967764780138,1639.7279620582508,None,1639.7279620582508,None,None,0.008299164290292538,None,,NENA_031,001,2021_Feb_28_1026,test7,3.2.4,99.99140502215518,
170,34,Festen var ganska trevligt men slutade för tidigt. ,4,,0,,inc,1,no,172,199,,,,,,,,,,,,,0,96,96,96,,,,,,,,,,,,,,,,,,,,,,,,,,,,,,,,,,,,,,,,,,,,,,,,,,,,,,,,,,,,,,,,,,,,,,,,,,,,,,,,,,,,,,,,,,,,,1645.2283743960543,None,1645.7290549971904,None,1645.7290549971904,None,left,0,1.875834554267385,1645.7290549971904,None,,,,,,,,,,,,,1647.6200141636882,None,,,,,,,,,,,,,,,,,,,,,,,,,,,,,,,,,1639.7379733738062,None,1639.7379733738062,None,1640.2380570858213,None,1644.7388849046392,1644.7388849046392,0.009869806967799377,None,1644.7388849046392,1644.7388849046392,1649.1196925940844,None,1649.1196925940844,None,None,0.0076560892312045326,None,,NENA_031,001,2021_Feb_28_1026,test7,3.2.4,99.99140502215518,
160,54,Löpare runtom i landet påtalar ett allvarligt problem som de flesta deltagare i landets många lopp har inte brytt sig om.,17,,18,,inc,1,no,163,164,,,,,,,,,,,,,0,97,97,97,,,,,,,,,,,,,,,,,,,,,,,,,,,,,,,,,,,,,,,,,,,,,,,,,,,,,,,,,,,,,,,,,,,,,,,,,,,,,,,,,,,,,,,,,,,,,1661.1212582974322,None,1661.6219821978866,None,1661.6219821978866,None,right,1,0.8625015716042981,1661.6219821978866,None,,,,,,,,,,,,,1662.5018188921022,None,,,,,,,,,,,,,,,,,,,,,,,,,,,,,,,,,1649.1297007022831,None,1649.1297007022831,None,1649.6297850557694,None,1660.6317915782502,1660.6317915782502,0.009865958140835573,None,1660.6317915782502,1660.6317915782502,1664.0024001934676,None,1664.0024001934676,None,None,0.007736914624729252,None,,NENA_031,001,2021_Feb_28_1026,test7,3.2.4,99.99140502215518,
150,78,Pojken serverade mat som katten ville inte äta.  ,6,,7,,inc,1,no,153,154,,,,,,,,,,,,,0,98,98,98,,,,,,,,,,,,,,,,,,,,,,,,,,,,,,,,,,,,,,,,,,,,,,,,,,,,,,,,,,,,,,,,,,,,,,,,,,,,,,,,,,,,,,,,,,,,,1669.5028025884649,None,1670.0035168668483,None,1670.0035168668483,None,right,1,1.1208766219606332,1670.0035168668483,None,,,,,,,,,,,,,1671.1339918250887,None,,,,,,,,,,,,,,,,,,,,,,,,,,,,,,,,,1664.012434922728,None,1664.012434922728,None,1664.5125333885853,None,1669.0133410010549,1669.0133410010549,0.009867561818282411,None,1669.0133410010549,1669.0133410010549,1672.6339675774702,None,1672.6339675774702,None,None,0.007986126257492288,None,,NENA_031,001,2021_Feb_28_1026,test7,3.2.4,99.99140502215518,
180,4,Rummet som hade lånats ut till ett yngre par på genomresa var fruktansvärt stökig när de åkte. ,14,,0,,inc,1,no,182,199,,,,,,,,,,,,,0,99,99,99,,,,,,,,,,,,,,,,,,,,,,,,,,,,,,,,,,,,,,,,,,,,,,,,,,,,,,,,,,,,,,,,,,,,,,,,,,,,,,,,,,,,,,,,,,,,,1682.6352054889421,None,1683.135908541576,None,1683.135908541576,None,left,0,1.4202699183279037,1683.135908541576,None,,,,,,,,,,,,,1684.5761410492933,None,,,,,,,,,,,,,,,,,,,,,,,,,,,,,,,,,1672.6439904395102,None,1672.6439904395102,None,1673.144091150517,None,1682.145724336654,1682.145724336654,0.009865316668765445,None,1682.145724336654,1682.145724336654,1686.076441386194,None,1686.076441386194,None,None,0.007916847347587463,None,,NENA_031,001,2021_Feb_28_1026,test7,3.2.4,99.99140502215518,
180,15,Fönstret som hade morgonsol och vette ut mot gården med de vackra rosenbuskarna var väldigt smutsigt och behövde tvättas omgående. ,16,,0,,cor,1,no,181,199,,,,,,,,,,,,,0,100,100,100,,,,,,,,,,,,,,,,,,,,,,,,,,,,,,,,,,,,,,,,,,,,,,,,,,,,,,,,,,,,,,,,,,,,,,,,,,,,,,,,,,,,,,,,,,,,,1697.5779240189977,None,1698.0786318826667,None,1698.0786318826667,None,left,1,4.757253758381012,1698.0786318826667,None,,,,,,,,,,,,,1702.8492939965972,None,,,,,,,,,,,,,,,,,,,,,,,,,,,,,,,,,1686.0864482114494,None,1686.0864482114494,None,1686.5865290368438,None,1697.0884579412877,1697.0884579412877,0.00986820329035254,None,1697.0884579412877,1697.0884579412877,1704.3497739454856,None,1704.3497739454856,None,None,0.008637540445306513,None,,NENA_031,001,2021_Feb_28_1026,test7,3.2.4,99.99140502215518,
170,30,Leken är särskilt svårt för nybörjare.  ,4,,0,,inc,1,no,172,199,,,,,,,,,,,,,0,101,101,101,,,,,,,,,,,,,,,,,,,,,,,,,,,,,,,,,,,,,,,,,,,,,,,,,,,,,,,,,,,,,,,,,,,,,,,,,,,,,,,,,,,,,,,,,,,,,1708.8499883893683,None,1709.35068566876,None,1709.35068566876,None,left,0,1.7491314477501874,1709.35068566876,None,,,,,,,,,,,,,1711.1107772965315,None,,,,,,,,,,,,,,,,,,,,,,,,,,,,,,,,,1704.359775318234,None,1704.359775318234,None,1704.859859350985,None,1708.360530009314,1708.360530009314,0.009869806967799377,None,1708.360530009314,1708.360530009314,1712.611266546754,None,1712.611266546754,None,None,0.00763748656027019,None,,NENA_031,001,2021_Feb_28_1026,test7,3.2.4,99.99140502215518,
160,31,Bondsonen i granngården sätter en ny sorts potatis som de något äldre bönderna i samhället inte vill använda.,16,,17,,cor,1,no,161,162,,,,,,,,,,,,,0,102,102,102,,,,,,,,,,,,,,,,,,,,,,,,,,,,,,,,,,,,,,,,,,,,,,,,,,,,,,,,,,,,,,,,,,,,,,,,,,,,,,,,,,,,,,,,,,,,,1723.1125814347915,None,1723.613277751976,None,1723.613277751976,None,left,1,1.534216083483443,1723.613277751976,None,,,,,,,,,,,,,1725.1633442725588,None,,,,,,,,,,,,,,,,,,,,,,,,,,,,,,,,,1712.6212926161515,None,1712.6212926161515,None,1713.121368309774,None,1722.6231342804867,1722.6231342804867,0.009869165496638743,None,1722.6231342804867,1722.6231342804867,1726.6638383338163,None,1726.6638383338163,None,None,0.007648391573638946,None,,NENA_031,001,2021_Feb_28_1026,test7,3.2.4,99.99140502215518,
160,20,Ordningsvakten med det långa håret stängde den enda öppna dörren som den väldigt glömska kollegan från nattskiftet hade inte stängt.,18,,19,,inc,1,no,163,164,,,,,,,,,,,,,0,103,103,103,,,,,,,,,,,,,,,,,,,,,,,,,,,,,,,,,,,,,,,,,,,,,,,,,,,,,,,,,,,,,,,,,,,,,,,,,,,,,,,,,,,,,,,,,,,,,1738.1753288823775,None,1738.6760264825043,None,1738.6760264825043,None,right,1,1.5754360722448837,1738.6760264825043,None,,,,,,,,,,,,,1740.2660820082674,None,,,,,,,,,,,,,,,,,,,,,,,,,,,,,,,,,1726.6738528567284,None,1726.6738528567284,None,1727.173942983458,None,1737.6858294481553,1737.6858294481553,0.009868524024568615,None,1737.6858294481553,1737.6858294481553,1741.766604294266,None,1741.766604294266,None,None,0.007819985168680432,None,,NENA_031,001,2021_Feb_28_1026,test7,3.2.4,99.99140502215518,
170,84,Förklädet var högt värderad under 1800-talet.  ,4,,0,,inc,1,no,174,199,,,,,,,,,,,,,0,104,104,104,,,,,,,,,,,,,,,,,,,,,,,,,,,,,,,,,,,,,,,,,,,,,,,,,,,,,,,,,,,,,,,,,,,,,,,,,,,,,,,,,,,,,,,,,,,,,1746.2768179940422,None,1746.7775232918257,None,1746.7775232918257,None,left,0,2.009592883773621,1746.7775232918257,None,,,,,,,,,,,,,1748.7981575017511,None,,,,,,,,,,,,,,,,,,,,,,,,,,,,,,,,,1741.776608553636,None,1741.776608553636,None,1742.27671022685,None,1745.7873352380757,1745.7873352380757,0.009868203289443045,None,1745.7873352380757,1745.7873352380757,1750.2981233113264,None,1750.2981233113264,None,None,0.007950203858854366,None,,NENA_031,001,2021_Feb_28_1026,test7,3.2.4,99.99140502215518,
170,89,Draken är för bred för den starka vinden. ,4,,0,,cor,1,no,171,199,,,,,,,,,,,,,0,105,105,105,,,,,,,,,,,,,,,,,,,,,,,,,,,,,,,,,,,,,,,,,,,,,,,,,,,,,,,,,,,,,,,,,,,,,,,,,,,,,,,,,,,,,,,,,,,,,1755.798563873871,None,1756.2992743034265,None,1756.2992743034265,None,left,1,1.1036993013094616,1756.2992743034265,None,,,,,,,,,,,,,1757.419197378178,None,,,,,,,,,,,,,,,,,,,,,,,,,,,,,,,,,1750.3081763225218,None,1750.3081763225218,None,1750.808250733202,None,1755.3090856082044,1755.3090856082044,0.009864033726444177,None,1755.3090856082044,1755.3090856082044,1758.919689194286,None,1758.919689194286,None,None,0.008183699443179648,None,,NENA_031,001,2021_Feb_28_1026,test7,3.2.4,99.99140502215518,
170,96,Skämtet är ganska komisk men kan inte visas på teve.,4,,0,,inc,1,no,174,199,,,,,,,,,,,,,0,106,106,106,,,,,,,,,,,,,,,,,,,,,,,,,,,,,,,,,,,,,,,,,,,,,,,,,,,,,,,,,,,,,,,,,,,,,,,,,,,,,,,,,,,,,,,,,,,,,1765.4203023126329,None,1765.9209890077464,None,1765.9209890077464,None,left,0,1.873904366880197,1765.9209890077464,None,,,,,,,,,,,,,1767.811114261448,None,,,,,,,,,,,,,,,,,,,,,,,,,,,,,,,,,1758.9296931329209,None,1758.9296931329209,None,1759.4298342566244,None,1764.9308445740498,1764.9308445740498,0.009868524026387604,None,1764.9308445740498,1764.9308445740498,1769.311633981562,None,1769.311633981562,None,None,0.007714142390796042,None,,NENA_031,001,2021_Feb_28_1026,test7,3.2.4,99.99140502215518,
150,102,Flickan köpte godis som vännen kunde inte äta.  ,6,,7,,inc,1,no,153,154,,,,,,,,,,,,,0,107,107,107,,,,,,,,,,,,,,,,,,,,,,,,,,,,,,,,,,,,,,,,,,,,,,,,,,,,,,,,,,,,,,,,,,,,,,,,,,,,,,,,,,,,,,,,,,,,,1774.8120289996377,None,1775.3127211472583,None,1775.3127211472583,None,right,1,1.778039034817084,1775.3127211472583,None,,,,,,,,,,,,,1777.1033108903875,None,,,,,,,,,,,,,,,,,,,,,,,,,,,,,,,,,1769.3216533155091,None,1769.3216533155091,None,1769.821721952947,None,1774.322549771765,1774.322549771765,0.009868203289443045,None,1774.322549771765,1774.322549771765,1778.6033219236956,None,1778.6033219236956,None,None,0.008018520562472986,None,,NENA_031,001,2021_Feb_28_1026,test7,3.2.4,99.99140502215518,
