trig_exp,trig_item,sentence,trig_w1,trig1,trig_w2,trig2,gram,task,paus,trig_1,trig_2,prac_trials.thisRepN,prac_trials.thisTrialN,prac_trials.thisN,prac_trials.thisIndex,trials_2.thisRepN,trials_2.thisTrialN,trials_2.thisN,trials_2.thisIndex,trials.thisRepN,trials.thisTrialN,trials.thisN,trials.thisIndex,exp_trials.thisRepN,exp_trials.thisTrialN,exp_trials.thisN,exp_trials.thisIndex,grating_1.started,grating_1.stopped,text_1.started,text_1.stopped,key_resp_1.keys,key_resp_1.rt,key_resp_1.started,key_resp_1.stopped,grating_2.started,grating_2.stopped,text_2.started,text_2.stopped,key_resp_2.keys,key_resp_2.rt,key_resp_2.started,key_resp_2.stopped,grating_3.started,grating_3.stopped,text_3.started,text_3.stopped,key_resp_3.keys,key_resp_3.rt,key_resp_3.started,key_resp_3.stopped,grating_4.started,grating_4.stopped,text_4.started,text_4.stopped,key_resp_4.keys,key_resp_4.rt,key_resp_4.started,key_resp_4.stopped,grating_5.started,grating_5.stopped,text_5.started,text_5.stopped,key_resp_5.keys,key_resp_5.rt,key_resp_5.started,key_resp_5.stopped,grating_6.started,grating_6.stopped,text_6.started,text_6.stopped,key_resp_6.keys,key_resp_6.rt,key_resp_6.started,key_resp_6.stopped,grating_7.started,grating_7.stopped,text_7.started,text_7.stopped,key_resp_7.keys,key_resp_7.rt,key_resp_7.started,key_resp_7.stopped,grating_8.started,grating_8.stopped,text_8.started,text_8.stopped,key_resp_8.keys,key_resp_8.rt,key_resp_8.started,key_resp_8.stopped,grating_9.started,grating_9.stopped,text_9.started,text_9.stopped,key_resp_9.keys,key_resp_9.rt,key_resp_9.started,key_resp_9.stopped,grating.started,grating.stopped,text.started,text.stopped,key_resp.keys,key_resp.rt,key_resp.started,key_resp.stopped,grating_14.started,grating_14.stopped,text_fix_4.started,text_fix_4.stopped,grating_16.started,grating_16.stopped,grating_40.started,grating_40.stopped,ISI_4.started,ISI_4.stopped,text_19.started,text_19.stopped,grating_24.started,grating_24.stopped,grating_35.started,grating_35.stopped,prompt.started,prompt.stopped,Button_Press.keys,Button_Press.corr,Button_Press.rt,Button_Press.started,Button_Press.stopped,grating_33.started,grating_33.stopped,grating_34.started,grating_34.stopped,Correct_Incorrect.started,Correct_Incorrect.stopped,Continue_text.started,Continue_text.stopped,Press_Bar.keys,Press_Bar.rt,Press_Bar.started,Press_Bar.stopped,grating_26.started,grating_26.stopped,grating_27.started,grating_27.stopped,text_10.started,text_10.stopped,key_resp_11.keys,key_resp_11.rt,key_resp_11.started,key_resp_11.stopped,grating_28.started,grating_28.stopped,text_11.started,text_11.stopped,key_resp_12.keys,key_resp_12.rt,key_resp_12.started,key_resp_12.stopped,grating_29.started,grating_29.stopped,text_12.started,text_12.stopped,key_resp_13.keys,key_resp_13.rt,key_resp_13.started,key_resp_13.stopped,grating_36.started,grating_36.stopped,text_14.started,text_14.stopped,key_resp_14.keys,key_resp_14.rt,key_resp_14.started,key_resp_14.stopped,grating_10.started,grating_10.stopped,text_fix.started,text_fix.stopped,grating_11.started,grating_11.stopped,grating_37.started,grating_37.stopped,ISI_2.started,ISI_2.stopped,text_15.started,text_15.stopped,grating_38.started,grating_38.stopped,text_fix_3.started,text_fix_3.stopped,key_resp_16.keys,key_resp_16.started,key_resp_16.stopped,key_resp_16.rt,participant,session,date,expName,psychopyVersion,frameRate,
,,,,,,,,,,,,,,,,,,,,,,,,,,,,15.889868085844682,None,15.889868085844682,None,space,45.42664313771547,15.889868085844682,None,,,,,,,,,,,,,,,,,,,,,,,,,,,,,,,,,,,,,,,,,,,,,,,,,,,,,,,,,,,,,,,,,,,,,,,,,,,,,,,,,,,,,,,,,,,,,,,,,,,,,,,,,,,,,,,,,,,,,,,,,,,,,,,,,,,,,,,,,,,,,,,,,,,,,,,,,,,,,,,,,,NENA_032,001,2021_Mar_01_1036,test7,3.2.4,99.95739278471328,
,,,,,,,,,,,,,,,,,,,,,,,,,,,,,,,,,,,,61.32812976588775,None,61.32812976588775,None,space,18.828001953903367,61.32812976588775,None,,,,,,,,,,,,,,,,,,,,,,,,,,,,,,,,,,,,,,,,,,,,,,,,,,,,,,,,,,,,,,,,,,,,,,,,,,,,,,,,,,,,,,,,,,,,,,,,,,,,,,,,,,,,,,,,,,,,,,,,,,,,,,,,,,,,,,,,,,,,,,,,,,,,,,,,,,NENA_032,001,2021_Mar_01_1036,test7,3.2.4,99.95739278471328,
,,,,,,,,,,,,,,,,,,,,,,,,,,,,,,,,,,,,,,,,,,,,80.17145023463218,None,80.17145023463218,None,space,18.136030438816306,80.17145023463218,None,,,,,,,,,,,,,,,,,,,,,,,,,,,,,,,,,,,,,,,,,,,,,,,,,,,,,,,,,,,,,,,,,,,,,,,,,,,,,,,,,,,,,,,,,,,,,,,,,,,,,,,,,,,,,,,,,,,,,,,,,,,,,,,,,,,,,,,,,,,,,,,,,,NENA_032,001,2021_Mar_01_1036,test7,3.2.4,99.95739278471328,
,,,,,,,,,,,,,,,,,,,,,,,,,,,,,,,,,,,,,,,,,,,,,,,,,,,,98.32458053774644,None,98.32458053774644,None,space,9.198696157398444,98.32458053774644,None,,,,,,,,,,,,,,,,,,,,,,,,,,,,,,,,,,,,,,,,,,,,,,,,,,,,,,,,,,,,,,,,,,,,,,,,,,,,,,,,,,,,,,,,,,,,,,,,,,,,,,,,,,,,,,,,,,,,,,,,,,,,,,,,,,,,,,,,,,NENA_032,001,2021_Mar_01_1036,test7,3.2.4,99.95739278471328,
,,,,,,,,,,,,,,,,,,,,,,,,,,,,,,,,,,,,,,,,,,,,,,,,,,,,,,,,,,,,107.53615956580506,None,107.53615956580506,None,space,20.09863300512734,107.53615956580506,None,,,,,,,,,,,,,,,,,,,,,,,,,,,,,,,,,,,,,,,,,,,,,,,,,,,,,,,,,,,,,,,,,,,,,,,,,,,,,,,,,,,,,,,,,,,,,,,,,,,,,,,,,,,,,,,,,,,,,,,,,,,,,,,,,,NENA_032,001,2021_Mar_01_1036,test7,3.2.4,99.95739278471328,
,,,,,,,,,,,,,,,,,,,,,,,,,,,,,,,,,,,,,,,,,,,,,,,,,,,,,,,,,,,,,,,,,,,,127.64963062817696,None,127.64963062817696,None,space,30.600601822852695,127.64963062817696,None,,,,,,,,,,,,,,,,,,,,,,,,,,,,,,,,,,,,,,,,,,,,,,,,,,,,,,,,,,,,,,,,,,,,,,,,,,,,,,,,,,,,,,,,,,,,,,,,,,,,,,,,,,,,,,,,,,,,,,,,,,NENA_032,001,2021_Mar_01_1036,test7,3.2.4,99.95739278471328,
,,,,,,,,,,,,,,,,,,,,,,,,,,,,,,,,,,,,,,,,,,,,,,,,,,,,,,,,,,,,,,,,,,,,,,,,,,,,158.26481745016827,None,158.26481745016827,None,space,8.001085359482204,158.26481745016827,None,,,,,,,,,,,,,,,,,,,,,,,,,,,,,,,,,,,,,,,,,,,,,,,,,,,,,,,,,,,,,,,,,,,,,,,,,,,,,,,,,,,,,,,,,,,,,,,,,,,,,,,,,,,,,,,,,,NENA_032,001,2021_Mar_01_1036,test7,3.2.4,99.95739278471328,
,,,,,,,,,,,,,,,,,,,,,,,,,,,,,,,,,,,,,,,,,,,,,,,,,,,,,,,,,,,,,,,,,,,,,,,,,,,,,,,,,,,,166.2762589480417,None,166.2762589480417,None,space,33.2927199127862,166.2762589480417,None,,,,,,,,,,,,,,,,,,,,,,,,,,,,,,,,,,,,,,,,,,,,,,,,,,,,,,,,,,,,,,,,,,,,,,,,,,,,,,,,,,,,,,,,,,,,,,,,,,,,,,,,,,NENA_032,001,2021_Mar_01_1036,test7,3.2.4,99.95739278471328,
,,,,,,,,,,,,,,,,,,,,,,,,,,,,,,,,,,,,,,,,,,,,,,,,,,,,,,,,,,,,,,,,,,,,,,,,,,,,,,,,,,,,,,,,,,,,199.5821048468806,None,199.5821048468806,None,space,28.74619971833181,199.5821048468806,None,,,,,,,,,,,,,,,,,,,,,,,,,,,,,,,,,,,,,,,,,,,,,,,,,,,,,,,,,,,,,,,,,,,,,,,,,,,,,,,,,,,,,,,,,,,,,,,,,,NENA_032,001,2021_Mar_01_1036,test7,3.2.4,99.95739278471328,
,,,,,,,,,,,,,,,,,,,,,,,,,,,,,,,,,,,,,,,,,,,,,,,,,,,,,,,,,,,,,,,,,,,,,,,,,,,,,,,,,,,,,,,,,,,,,,,,,,,,228.34710367139542,None,228.34710367139542,None,space,2.2371061442445352,228.34710367139542,None,,,,,,,,,,,,,,,,,,,,,,,,,,,,,,,,,,,,,,,,,,,,,,,,,,,,,,,,,,,,,,,,,,,,,,,,,,,,,,,,,,,,,,,,,,NENA_032,001,2021_Mar_01_1036,test7,3.2.4,99.95739278471328,
199,1,Meningarna presenteras ord för ord.,99,99,99,99,cor,1,no,,,0,0,0,0,0,0,0,0,0,0,0,0,,,,,,,,,,,,,,,,,,,,,,,,,,,,,,,,,,,,,,,,,,,,,,,,,,,,,,,,,,,,,,,,,,,,,,,,,,,,,,,,,,,,,230.6571537345635,None,230.6571537345635,None,231.10761769046167,None,234.11811847930312,234.11811847930312,0.009892423041492293,None,234.11811847930312,234.11811847930312,234.60754472376993,None,235.1180921792211,None,235.1180921792211,None,left,1,4.577905493541948,235.1180921792211,None,239.70992966011,None,240.03883046742612,None,240.03883046742612,None,240.03883046742612,None,space,3.4411681598376163,240.03883046742612,None,,,,,,,,,,,,,,,,,,,,,,,,,,,,,,,,,,,,,,,,,,,,,,,,,,,,,,,NENA_032,001,2021_Mar_01_1036,test7,3.2.4,99.95739278471328,
199,1,Meningarna presenteras ord för ord.,99,99,99,99,cor,1,no,,,0,0,0,0,0,0,0,0,,,,,,,,,,,,,,,,,,,,,,,,,,,,,,,,,,,,,,,,,,,,,,,,,,,,,,,,,,,,,,,,,,,,,,,,,,,,,,,,,,,,,,,,,,,,,,,,,,,,,,,,,,,,,,,,,,,,,,,,,,,,,,,,,,,,,,,,,,,,,,,,,,,,,,,,,,,,,,,,,,,,,,,,,,,,,,,,,,NENA_032,001,2021_Mar_01_1036,test7,3.2.4,99.95739278471328,
199,1,Meningarna presenteras ord för ord.,99,99,99,99,cor,1,no,,,0,0,0,0,,,,,,,,,,,,,,,,,,,,,,,,,,,,,,,,,,,,,,,,,,,,,,,,,,,,,,,,,,,,,,,,,,,,,,,,,,,,,,,,,,,,,,,,,,,,,,,,,,,,,,,,,,,,,,,,,,,,,,,,,,,,,,,,243.4997419705369,None,,,,,,,,,,,,,,,,,,,,,,,,,,,,,,,,,,,,,,,,,,,,,,,,,,,,,NENA_032,001,2021_Mar_01_1036,test7,3.2.4,99.95739278471328,
199,2,Läs meningen noggrant och ange ditt svar när du ser frågetecknet.,99,99,99,99,cor,1,no,,,0,1,1,1,0,0,0,0,0,0,0,0,,,,,,,,,,,,,,,,,,,,,,,,,,,,,,,,,,,,,,,,,,,,,,,,,,,,,,,,,,,,,,,,,,,,,,,,,,,,,,,,,,,,,244.99995958767886,None,244.99995958767886,None,245.50009798384144,None,251.50105793683542,251.50105793683542,0.009908138945320388,None,251.50105793683542,251.50105793683542,251.9905447997844,None,252.4912897014974,None,252.4912897014974,None,left,1,1.7243905356917821,252.4912897014974,None,254.23202509669227,None,254.53209267507373,None,254.53209267507373,None,254.53209267507373,None,space,5.403299569800765,254.53209267507373,None,,,,,,,,,,,,,,,,,,,,,,,,,,,,,,,,,,,,,,,,,,,,,,,,,,,,,,,NENA_032,001,2021_Mar_01_1036,test7,3.2.4,99.95739278471328,
199,2,Läs meningen noggrant och ange ditt svar när du ser frågetecknet.,99,99,99,99,cor,1,no,,,0,1,1,1,0,0,0,0,,,,,,,,,,,,,,,,,,,,,,,,,,,,,,,,,,,,,,,,,,,,,,,,,,,,,,,,,,,,,,,,,,,,,,,,,,,,,,,,,,,,,,,,,,,,,,,,,,,,,,,,,,,,,,,,,,,,,,,,,,,,,,,,,,,,,,,,,,,,,,,,,,,,,,,,,,,,,,,,,,,,,,,,,,,,,,,,,,NENA_032,001,2021_Mar_01_1036,test7,3.2.4,99.95739278471328,
199,2,Läs meningen noggrant och ange ditt svar när du ser frågetecknet.,99,99,99,99,cor,1,no,,,0,1,1,1,,,,,,,,,,,,,,,,,,,,,,,,,,,,,,,,,,,,,,,,,,,,,,,,,,,,,,,,,,,,,,,,,,,,,,,,,,,,,,,,,,,,,,,,,,,,,,,,,,,,,,,,,,,,,,,,,,,,,,,,,,,,,,,,259.95257261308325,None,,,,,,,,,,,,,,,,,,,,,,,,,,,,,,,,,,,,,,,,,,,,,,,,,,,,,NENA_032,001,2021_Mar_01_1036,test7,3.2.4,99.95739278471328,
199,3,I den här meningen finns det en misstag.,99,99,99,99,inc,1,no,,,0,2,2,2,0,0,0,0,0,0,0,0,,,,,,,,,,,,,,,,,,,,,,,,,,,,,,,,,,,,,,,,,,,,,,,,,,,,,,,,,,,,,,,,,,,,,,,,,,,,,,,,,,,,,261.4525759807766,None,261.4525759807766,None,261.9529141934163,None,266.45371939287816,266.45371939287816,0.0099058938167218,None,266.45371939287816,266.45371939287816,266.94312831777916,None,267.4438911805237,None,267.4438911805237,None,right,1,3.1393330235059693,267.4438911805237,None,270.5942817848518,None,270.8946139677164,None,270.8946139677164,None,270.8946139677164,None,space,4.264602559254854,270.8946139677164,None,,,,,,,,,,,,,,,,,,,,,,,,,,,,,,,,,,,,,,,,,,,,,,,,,,,,,,,NENA_032,001,2021_Mar_01_1036,test7,3.2.4,99.95739278471328,
199,3,I den här meningen finns det en misstag.,99,99,99,99,inc,1,no,,,0,2,2,2,0,0,0,0,,,,,,,,,,,,,,,,,,,,,,,,,,,,,,,,,,,,,,,,,,,,,,,,,,,,,,,,,,,,,,,,,,,,,,,,,,,,,,,,,,,,,,,,,,,,,,,,,,,,,,,,,,,,,,,,,,,,,,,,,,,,,,,,,,,,,,,,,,,,,,,,,,,,,,,,,,,,,,,,,,,,,,,,,,,,,,,,,,NENA_032,001,2021_Mar_01_1036,test7,3.2.4,99.95739278471328,
199,3,I den här meningen finns det en misstag.,99,99,99,99,inc,1,no,,,0,2,2,2,,,,,,,,,,,,,,,,,,,,,,,,,,,,,,,,,,,,,,,,,,,,,,,,,,,,,,,,,,,,,,,,,,,,,,,,,,,,,,,,,,,,,,,,,,,,,,,,,,,,,,,,,,,,,,,,,,,,,,,,,,,,,,,,275.1761749481457,None,,,,,,,,,,,,,,,,,,,,,,,,,,,,,,,,,,,,,,,,,,,,,,,,,,,,,NENA_032,001,2021_Mar_01_1036,test7,3.2.4,99.95739278471328,
199,4,I det här meningen finns det ett till misstag.,99,99,99,99,inc,1,no,,,0,3,3,3,0,0,0,0,0,0,0,0,,,,,,,,,,,,,,,,,,,,,,,,,,,,,,,,,,,,,,,,,,,,,,,,,,,,,,,,,,,,,,,,,,,,,,,,,,,,,,,,,,,,,276.6754852124577,None,276.6754852124577,None,277.17556363160475,None,282.17643987336123,282.17643987336123,0.009908459677717474,None,282.17643987336123,282.17643987336123,282.6658314786964,None,283.16660396342195,None,283.16660396342195,None,right,1,4.256159270730677,283.16660396342195,None,287.4405776909234,None,287.74713369197616,None,287.74713369197616,None,287.74713369197616,None,space,4.387494824175519,287.74713369197616,None,,,,,,,,,,,,,,,,,,,,,,,,,,,,,,,,,,,,,,,,,,,,,,,,,,,,,,,NENA_032,001,2021_Mar_01_1036,test7,3.2.4,99.95739278471328,
199,4,I det här meningen finns det ett till misstag.,99,99,99,99,inc,1,no,,,0,3,3,3,0,0,0,0,,,,,,,,,,,,,,,,,,,,,,,,,,,,,,,,,,,,,,,,,,,,,,,,,,,,,,,,,,,,,,,,,,,,,,,,,,,,,,,,,,,,,,,,,,,,,,,,,,,,,,,,,,,,,,,,,,,,,,,,,,,,,,,,,,,,,,,,,,,,,,,,,,,,,,,,,,,,,,,,,,,,,,,,,,,,,,,,,,NENA_032,001,2021_Mar_01_1036,test7,3.2.4,99.95739278471328,
199,4,I det här meningen finns det ett till misstag.,99,99,99,99,inc,1,no,,,0,3,3,3,,,,,,,,,,,,,,,,,,,,,,,,,,,,,,,,,,,,,,,,,,,,,,,,,,,,,,,,,,,,,,,,,,,,,,,,,,,,,,,,,,,,,,,,,,,,,,,,,,,,,,,,,,,,,,,,,,,,,,,,,,,,,,,,292.1489460242128,None,,,,,,,,,,,,,,,,,,,,,,,,,,,,,,,,,,,,,,,,,,,,,,,,,,,,,NENA_032,001,2021_Mar_01_1036,test7,3.2.4,99.95739278471328,
199,5,Ibland kan meningarna låta lite märkliga men ändå vara grammatiskt korrekta.,99,99,99,99,cor,1,no,,,0,4,4,4,0,0,0,0,0,0,0,0,,,,,,,,,,,,,,,,,,,,,,,,,,,,,,,,,,,,,,,,,,,,,,,,,,,,,,,,,,,,,,,,,,,,,,,,,,,,,,,,,,,,,293.6483974109169,None,293.6483974109169,None,294.1485069411365,None,300.14957530178526,300.14957530178526,0.009906535281515971,None,300.14957530178526,300.14957530178526,300.63896402052524,None,301.13970122465344,None,301.13970122465344,None,left,1,1.8825868119201914,301.13970122465344,None,303.0397904204192,None,303.340619418248,None,303.340619418248,None,303.340619418248,None,space,3.9935997788224995,303.340619418248,None,,,,,,,,,,,,,,,,,,,,,,,,,,,,,,,,,,,,,,,,,,,,,,,,,,,,,,,NENA_032,001,2021_Mar_01_1036,test7,3.2.4,99.95739278471328,
199,5,Ibland kan meningarna låta lite märkliga men ändå vara grammatiskt korrekta.,99,99,99,99,cor,1,no,,,0,4,4,4,0,0,0,0,,,,,,,,,,,,,,,,,,,,,,,,,,,,,,,,,,,,,,,,,,,,,,,,,,,,,,,,,,,,,,,,,,,,,,,,,,,,,,,,,,,,,,,,,,,,,,,,,,,,,,,,,,,,,,,,,,,,,,,,,,,,,,,,,,,,,,,,,,,,,,,,,,,,,,,,,,,,,,,,,,,,,,,,,,,,,,,,,,NENA_032,001,2021_Mar_01_1036,test7,3.2.4,99.95739278471328,
199,5,Ibland kan meningarna låta lite märkliga men ändå vara grammatiskt korrekta.,99,99,99,99,cor,1,no,,,0,4,4,4,,,,,,,,,,,,,,,,,,,,,,,,,,,,,,,,,,,,,,,,,,,,,,,,,,,,,,,,,,,,,,,,,,,,,,,,,,,,,,,,,,,,,,,,,,,,,,,,,,,,,,,,,,,,,,,,,,,,,,,,,,,,,,,,307.3510499666272,None,,,,,,,,,,,,,,,,,,,,,,,,,,,,,,,,,,,,,,,,,,,,,,,,,,,,,NENA_032,001,2021_Mar_01_1036,test7,3.2.4,99.95739278471328,
199,6,De gröna idéerna missade bussen i morse.,99,99,99,99,cor,1,no,,,0,5,5,5,0,0,0,0,0,0,0,0,,,,,,,,,,,,,,,,,,,,,,,,,,,,,,,,,,,,,,,,,,,,,,,,,,,,,,,,,,,,,,,,,,,,,,,,,,,,,,,,,,,,,308.8510603904406,None,308.8510603904406,None,309.3511301498047,None,313.34181767564314,313.34181767564314,0.009906856014822552,None,313.34181767564314,313.34181767564314,313.8312673335977,None,314.3320366109965,None,314.3320366109965,None,right,0,1.841940676637023,314.3320366109965,None,316.192074309919,None,316.51242277959136,None,316.51242277959136,None,316.51242277959136,None,space,4.053463897203073,316.51242277959136,None,,,,,,,,,,,,,,,,,,,,,,,,,,,,,,,,,,,,,,,,,,,,,,,,,,,,,,,NENA_032,001,2021_Mar_01_1036,test7,3.2.4,99.95739278471328,
199,6,De gröna idéerna missade bussen i morse.,99,99,99,99,cor,1,no,,,0,5,5,5,0,0,0,0,,,,,,,,,,,,,,,,,,,,,,,,,,,,,,,,,,,,,,,,,,,,,,,,,,,,,,,,,,,,,,,,,,,,,,,,,,,,,,,,,,,,,,,,,,,,,,,,,,,,,,,,,,,,,,,,,,,,,,,,,,,,,,,,,,,,,,,,,,,,,,,,,,,,,,,,,,,,,,,,,,,,,,,,,,,,,,,,,,NENA_032,001,2021_Mar_01_1036,test7,3.2.4,99.95739278471328,
199,6,De gröna idéerna missade bussen i morse.,99,99,99,99,cor,1,no,,,0,5,5,5,,,,,,,,,,,,,,,,,,,,,,,,,,,,,,,,,,,,,,,,,,,,,,,,,,,,,,,,,,,,,,,,,,,,,,,,,,,,,,,,,,,,,,,,,,,,,,,,,,,,,,,,,,,,,,,,,,,,,,,,,,,,,,,,320.59307198107945,None,,,,,,,,,,,,,,,,,,,,,,,,,,,,,,,,,,,,,,,,,,,,,,,,,,,,,NENA_032,001,2021_Mar_01_1036,test7,3.2.4,99.95739278471328,
199,7,Det bruna bordet är mer än hundra år gamla.,99,99,99,99,inc,1,no,,,0,6,6,6,0,0,0,0,0,0,0,0,,,,,,,,,,,,,,,,,,,,,,,,,,,,,,,,,,,,,,,,,,,,,,,,,,,,,,,,,,,,,,,,,,,,,,,,,,,,,,,,,,,,,322.09333065200735,None,322.09333065200735,None,322.5934433895545,None,327.5942942934271,327.5942942934271,0.00990910114342114,None,327.5942942934271,327.5942942934271,328.0837349708663,None,328.5844760237869,None,328.5844760237869,None,left,0,2.0211811879999004,328.5844760237869,None,330.6249659622408,None,330.9246460955119,None,330.9246460955119,None,330.9246460955119,None,space,3.152906752417948,330.9246460955119,None,,,,,,,,,,,,,,,,,,,,,,,,,,,,,,,,,,,,,,,,,,,,,,,,,,,,,,,NENA_032,001,2021_Mar_01_1036,test7,3.2.4,99.95739278471328,
199,7,Det bruna bordet är mer än hundra år gamla.,99,99,99,99,inc,1,no,,,0,6,6,6,0,0,0,0,,,,,,,,,,,,,,,,,,,,,,,,,,,,,,,,,,,,,,,,,,,,,,,,,,,,,,,,,,,,,,,,,,,,,,,,,,,,,,,,,,,,,,,,,,,,,,,,,,,,,,,,,,,,,,,,,,,,,,,,,,,,,,,,,,,,,,,,,,,,,,,,,,,,,,,,,,,,,,,,,,,,,,,,,,,,,,,,,,NENA_032,001,2021_Mar_01_1036,test7,3.2.4,99.95739278471328,
199,7,Det bruna bordet är mer än hundra år gamla.,99,99,99,99,inc,1,no,,,0,6,6,6,,,,,,,,,,,,,,,,,,,,,,,,,,,,,,,,,,,,,,,,,,,,,,,,,,,,,,,,,,,,,,,,,,,,,,,,,,,,,,,,,,,,,,,,,,,,,,,,,,,,,,,,,,,,,,,,,,,,,,,,,,,,,,,,334.0958548184153,None,,,,,,,,,,,,,,,,,,,,,,,,,,,,,,,,,,,,,,,,,,,,,,,,,,,,,NENA_032,001,2021_Mar_01_1036,test7,3.2.4,99.95739278471328,
199,8,På våren gilla alla att tillbringa tid i solen.,99,99,99,99,inc,1,no,,,0,7,7,7,0,0,0,0,0,0,0,0,,,,,,,,,,,,,,,,,,,,,,,,,,,,,,,,,,,,,,,,,,,,,,,,,,,,,,,,,,,,,,,,,,,,,,,,,,,,,,,,,,,,,335.5957112905289,None,335.5957112905289,None,336.095721393609,None,341.0866552421676,341.0866552421676,0.009910704807225557,None,341.0866552421676,341.0866552421676,341.5760673743953,None,342.0768090687816,None,342.0768090687816,None,left,0,1.3765629705758329,342.0768090687816,None,343.4677742208514,None,343.7669658782088,None,343.7669658782088,None,343.7669658782088,None,space,2.8383372446687645,343.7669658782088,None,,,,,,,,,,,,,,,,,,,,,,,,,,,,,,,,,,,,,,,,,,,,,,,,,,,,,,,NENA_032,001,2021_Mar_01_1036,test7,3.2.4,99.95739278471328,
199,8,På våren gilla alla att tillbringa tid i solen.,99,99,99,99,inc,1,no,,,0,7,7,7,0,0,0,0,,,,,,,,,,,,,,,,,,,,,,,,,,,,,,,,,,,,,,,,,,,,,,,,,,,,,,,,,,,,,,,,,,,,,,,,,,,,,,,,,,,,,,,,,,,,,,,,,,,,,,,,,,,,,,,,,,,,,,,,,,,,,,,,,,,,,,,,,,,,,,,,,,,,,,,,,,,,,,,,,,,,,,,,,,,,,,,,,,NENA_032,001,2021_Mar_01_1036,test7,3.2.4,99.95739278471328,
199,8,På våren gilla alla att tillbringa tid i solen.,99,99,99,99,inc,1,no,,,0,7,7,7,,,,,,,,,,,,,,,,,,,,,,,,,,,,,,,,,,,,,,,,,,,,,,,,,,,,,,,,,,,,,,,,,,,,,,,,,,,,,,,,,,,,,,,,,,,,,,,,,,,,,,,,,,,,,,,,,,,,,,,,,,,,,,,,346.6276020643636,None,,,,,,,,,,,,,,,,,,,,,,,,,,,,,,,,,,,,,,,,,,,,,,,,,,,,,NENA_032,001,2021_Mar_01_1036,test7,3.2.4,99.95739278471328,
199,9,Tidningen avskedade dem journalist som publicerade falska fakta.,99,99,99,99,inc,1,no,,,0,8,8,8,0,0,0,0,0,0,0,0,,,,,,,,,,,,,,,,,,,,,,,,,,,,,,,,,,,,,,,,,,,,,,,,,,,,,,,,,,,,,,,,,,,,,,,,,,,,,,,,,,,,,348.1278446986571,None,348.1278446986571,None,348.6279208726746,None,353.1287360148508,353.1287360148508,0.00991006334152189,None,353.1287360148508,353.1287360148508,353.6181298653146,None,354.11891325495253,None,354.11891325495253,None,right,1,1.3741398349693554,354.11891325495253,None,355.51912160291886,None,355.8292200967262,None,355.8292200967262,None,355.8292200967262,None,space,2.367803118869233,355.8292200967262,None,,,,,,,,,,,,,,,,,,,,,,,,,,,,,,,,,,,,,,,,,,,,,,,,,,,,,,,NENA_032,001,2021_Mar_01_1036,test7,3.2.4,99.95739278471328,
199,9,Tidningen avskedade dem journalist som publicerade falska fakta.,99,99,99,99,inc,1,no,,,0,8,8,8,0,0,0,0,,,,,,,,,,,,,,,,,,,,,,,,,,,,,,,,,,,,,,,,,,,,,,,,,,,,,,,,,,,,,,,,,,,,,,,,,,,,,,,,,,,,,,,,,,,,,,,,,,,,,,,,,,,,,,,,,,,,,,,,,,,,,,,,,,,,,,,,,,,,,,,,,,,,,,,,,,,,,,,,,,,,,,,,,,,,,,,,,,NENA_032,001,2021_Mar_01_1036,test7,3.2.4,99.95739278471328,
199,9,Tidningen avskedade dem journalist som publicerade falska fakta.,99,99,99,99,inc,1,no,,,0,8,8,8,,,,,,,,,,,,,,,,,,,,,,,,,,,,,,,,,,,,,,,,,,,,,,,,,,,,,,,,,,,,,,,,,,,,,,,,,,,,,,,,,,,,,,,,,,,,,,,,,,,,,,,,,,,,,,,,,,,,,,,,,,,,,,,,358.2196162689743,None,,,,,,,,,,,,,,,,,,,,,,,,,,,,,,,,,,,,,,,,,,,,,,,,,,,,,NENA_032,001,2021_Mar_01_1036,test7,3.2.4,99.95739278471328,
199,10,Bra jobbat!,99,99,99,99,cor,1,no,,,0,9,9,9,0,0,0,0,0,0,0,0,,,,,,,,,,,,,,,,,,,,,,,,,,,,,,,,,,,,,,,,,,,,,,,,,,,,,,,,,,,,,,,,,,,,,,,,,,,,,,,,,,,,,359.71984735688966,None,359.71984735688966,None,360.21996715055593,None,361.72022293489044,361.72022293489044,0.009909742609124805,None,361.72022293489044,361.72022293489044,362.20965174521825,None,362.7103514236196,None,362.7103514236196,None,left,1,1.6064737972601506,362.7103514236196,None,364.3303485947572,None,364.63051335514956,None,364.63051335514956,None,364.63051335514956,None,space,2.214168944670746,364.63051335514956,None,,,,,,,,,,,,,,,,,,,,,,,,,,,,,,,,,,,,,,,,,,,,,,,,,,,,,,,NENA_032,001,2021_Mar_01_1036,test7,3.2.4,99.95739278471328,
199,10,Bra jobbat!,99,99,99,99,cor,1,no,,,0,9,9,9,0,0,0,0,,,,,,,,,,,,,,,,,,,,,,,,,,,,,,,,,,,,,,,,,,,,,,,,,,,,,,,,,,,,,,,,,,,,,,,,,,,,,,,,,,,,,,,,,,,,,,,,,,,,,,,,,,,,,,,,,,,,,,,,,,,,,,,,,,,,,,,,,,,,,,,,,,,,,,,,,,,,,,,,,,,,,,,,,,,,,,,,,,NENA_032,001,2021_Mar_01_1036,test7,3.2.4,99.95739278471328,
199,10,Bra jobbat!,99,99,99,99,cor,1,no,,,0,9,9,9,,,,,,,,,,,,,,,,,,,,,,,,,,,,,,,,,,,,,,,,,,,,,,,,,,,,,,,,,,,,,,,,,,,,,,,,,,,,,,,,,,,,,,,,,,,,,,,,,,,,,,,,,,,,,,,,,,,,,,,,,,,,,,,,366.8613196675542,None,,,,,,,,,,,,,,,,,,,,,,,,,,,,,,,,,,,,,,,,,,,,,,,,,,,,,NENA_032,001,2021_Mar_01_1036,test7,3.2.4,99.95739278471328,
,,,,,,,,,,,,,,,,,,,,,,,,,,,,,,,,,,,,,,,,,,,,,,,,,,,,,,,,,,,,,,,,,,,,,,,,,,,,,,,,,,,,,,,,,,,,,,,,,,,,,,,,,,,,,,,,,,,,,,,,,,,,,,,,,,,,,,,,,,,,,,,,,368.3613801256688,None,368.3613801256688,None,space,153.69560060567164,368.3613801256688,None,,,,,,,,,,,,,,,,,,,,,,,,,,,,,,,,,,,,,,,,,,,,,NENA_032,001,2021_Mar_01_1036,test7,3.2.4,99.95739278471328,
,,,,,,,,,,,,,,,,,,,,,,,,,,,,,,,,,,,,,,,,,,,,,,,,,,,,,,,,,,,,,,,,,,,,,,,,,,,,,,,,,,,,,,,,,,,,,,,,,,,,,,,,,,,,,,,,,,,,,,,,,,,,,,,,,,,,,,,,,,,,,,,,,,,,,,,,,522.0679930888509,None,522.0679930888509,None,space,10.58865068070736,522.0679930888509,None,,,,,,,,,,,,,,,,,,,,,,,,,,,,,,,,,,,,,NENA_032,001,2021_Mar_01_1036,test7,3.2.4,99.95739278471328,
,,,,,,,,,,,,,,,,,,,,,,,,,,,,,,,,,,,,,,,,,,,,,,,,,,,,,,,,,,,,,,,,,,,,,,,,,,,,,,,,,,,,,,,,,,,,,,,,,,,,,,,,,,,,,,,,,,,,,,,,,,,,,,,,,,,,,,,,,,,,,,,,,,,,,,,,,,,,,,,,,532.6698614851657,None,532.6698614851657,None,space,6.858614928632051,532.6698614851657,None,,,,,,,,,,,,,,,,,,,,,,,,,,,,,NENA_032,001,2021_Mar_01_1036,test7,3.2.4,99.95739278471328,
,,,,,,,,,,,,,,,,,,,,,,,,,,,,,,,,,,,,,,,,,,,,,,,,,,,,,,,,,,,,,,,,,,,,,,,,,,,,,,,,,,,,,,,,,,,,,,,,,,,,,,,,,,,,,,,,,,,,,,,,,,,,,,,,,,,,,,,,,,,,,,,,,,,,,,,,,,,,,,,,,,,,,,,,,539.5410010260239,None,539.5410010260239,None,space,6.0192981662748934,539.5410010260239,None,,,,,,,,,,,,,,,,,,,,,NENA_032,001,2021_Mar_01_1036,test7,3.2.4,99.95739278471328,
160,2,Den höga ljudnivån gav allvarliga skador på husgrunden som de flesta boende i de gamla radhusen inte kunde upptäcka direkt.,17,,18,,cor,1,no,161,162,,,,,,,,,,,,,0,0,0,0,,,,,,,,,,,,,,,,,,,,,,,,,,,,,,,,,,,,,,,,,,,,,,,,,,,,,,,,,,,,,,,,,,,,,,,,,,,,,,,,,,,,,,,,,,,,,557.0634059696695,None,557.5638622119459,None,557.5638622119459,None,left,1,1.9080857036278758,557.5638622119459,None,,,,,,,,,,,,,559.4944752187475,None,,,,,,,,,,,,,,,,,,,,,,,,,,,,,,,,,545.6714077375482,None,545.6714077375482,None,546.0821428537065,None,556.5740005728285,556.5740005728285,0.009873179080386763,None,556.5740005728285,556.5740005728285,560.994749669725,None,560.994749669725,None,None,0.008115884575090604,None,,NENA_032,001,2021_Mar_01_1036,test7,3.2.4,99.95739278471328,
150,50,Riksdagen fattar beslut men kommunerna kan inte genomföra dem.  ,6,,7,,cor,1,no,155,156,,,,,,,,,,,,,0,1,1,1,,,,,,,,,,,,,,,,,,,,,,,,,,,,,,,,,,,,,,,,,,,,,,,,,,,,,,,,,,,,,,,,,,,,,,,,,,,,,,,,,,,,,,,,,,,,,566.9951299945697,None,567.4958748962827,None,567.4958748962827,None,left,1,1.5678646354026569,567.4958748962827,None,,,,,,,,,,,,,569.0761493216023,None,,,,,,,,,,,,,,,,,,,,,,,,,,,,,,,,,561.004416810114,None,561.004416810114,None,561.5047951143424,None,566.5057018257066,566.5057018257066,0.009883763259495026,None,566.5057018257066,566.5057018257066,570.5764032456864,None,570.5764032456864,None,None,0.008684864399583603,None,,NENA_032,001,2021_Mar_01_1036,test7,3.2.4,99.95739278471328,
140,39,Astronomer observerar gärna stjärnor med stor spegelteleskop.,3,,4,,inc,1,no,133,134,,,,,,,,,,,,,0,2,2,2,,,,,,,,,,,,,,,,,,,,,,,,,,,,,,,,,,,,,,,,,,,,,,,,,,,,,,,,,,,,,,,,,,,,,,,,,,,,,,,,,,,,,,,,,,,,,575.576597866293,None,576.0773424472736,None,576.0773424472736,None,left,0,0.7301730256740484,576.0773424472736,None,,,,,,,,,,,,,576.8174809589009,None,,,,,,,,,,,,,,,,,,,,,,,,,,,,,,,,,570.5864215883903,None,570.5864215883903,None,571.0864878196944,None,575.0871908657891,575.0871908657891,0.009877027872789768,None,575.0871908657891,575.0871908657891,578.317764711127,None,578.317764711127,None,None,0.0076678209834426525,None,,NENA_032,001,2021_Mar_01_1036,test7,3.2.4,99.95739278471328,
170,88,Kajaken var för smalt för det öppna havet. ,4,,0,,inc,1,no,172,199,,,,,,,,,,,,,0,3,3,3,,,,,,,,,,,,,,,,,,,,,,,,,,,,,,,,,,,,,,,,,,,,,,,,,,,,,,,,,,,,,,,,,,,,,,,,,,,,,,,,,,,,,,,,,,,,,583.8180300532958,None,584.318805745349,None,584.318805745349,None,right,1,2.2007270369012986,584.318805745349,None,,,,,,,,,,,,,586.5294639498034,None,,,,,,,,,,,,,,,,,,,,,,,,,,,,,,,,,578.3277589988775,None,578.3277589988775,None,578.8278175325968,None,583.3286182418005,583.3286182418005,0.009885046189992863,None,583.3286182418005,583.3286182418005,588.029389122863,None,588.029389122863,None,None,0.007976365847753186,None,,NENA_032,001,2021_Mar_01_1036,test7,3.2.4,99.95739278471328,
160,52,Tre promenader i veckan har positiva effekter på hjärnan som många människor med lätt eller medelsvår depression bör inte vara utan.,18,,19,,inc,1,no,163,164,,,,,,,,,,,,,0,4,4,4,,,,,,,,,,,,,,,,,,,,,,,,,,,,,,,,,,,,,,,,,,,,,,,,,,,,,,,,,,,,,,,,,,,,,,,,,,,,,,,,,,,,,,,,,,,,,600.0308214509878,None,600.5316013125666,None,600.5316013125666,None,left,0,3.227262215987139,600.5316013125666,None,,,,,,,,,,,,,603.7719641767226,None,,,,,,,,,,,,,,,,,,,,,,,,,,,,,,,,,588.0394125972898,None,588.0394125972898,None,588.5395070530722,None,599.5413227209292,599.5413227209292,0.009883442526188446,None,599.5413227209292,599.5413227209292,605.2724236904724,None,605.2724236904724,None,None,0.008608850747805263,None,,NENA_032,001,2021_Mar_01_1036,test7,3.2.4,99.95739278471328,
160,42,Det dåliga vädret innebär en stor förlust som de flesta invånarna i den lilla badorten inte har förutsett.,16,,17,,cor,1,no,161,162,,,,,,,,,,,,,0,5,5,5,,,,,,,,,,,,,,,,,,,,,,,,,,,,,,,,,,,,,,,,,,,,,,,,,,,,,,,,,,,,,,,,,,,,,,,,,,,,,,,,,,,,,,,,,,,,,615.7735790659044,None,616.2743027992583,None,616.2743027992583,None,left,1,3.5002381440344834,616.2743027992583,None,,,,,,,,,,,,,619.7846786627115,None,,,,,,,,,,,,,,,,,,,,,,,,,,,,,,,,,605.2824250343419,None,605.2824250343419,None,605.7825040949547,None,615.284139992129,615.284139992129,0.009883442526188446,None,615.284139992129,615.284139992129,621.2851965498139,None,621.2851965498139,None,None,0.007726515069407469,None,,NENA_032,001,2021_Mar_01_1036,test7,3.2.4,99.95739278471328,
170,81,Guldet är redan vägt och transporteras nu till banken. ,4,,0,,cor,1,no,173,199,,,,,,,,,,,,,0,6,6,6,,,,,,,,,,,,,,,,,,,,,,,,,,,,,,,,,,,,,,,,,,,,,,,,,,,,,,,,,,,,,,,,,,,,,,,,,,,,,,,,,,,,,,,,,,,,,627.2855755917271,None,627.7863294739564,None,627.7863294739564,None,right,0,0.0038619425304204924,627.7863294739564,None,,,,,,,,,,,,,627.8060121987473,None,,,,,,,,,,,,,,,,,,,,,,,,,,,,,,,,,621.2951552362338,None,621.2951552362338,None,621.7952670115819,None,626.7961551204489,626.7961551204489,0.009872537614683097,None,626.7961551204489,626.7961551204489,629.3065781957566,None,629.3065781957566,None,None,0.007861864271944796,None,,NENA_032,001,2021_Mar_01_1036,test7,3.2.4,99.95739278471328,
150,65,Poeten skrev verk men allmänheten inte fick se dem.  ,6,,7,,inc,1,no,157,158,,,,,,,,,,,,,0,7,7,7,,,,,,,,,,,,,,,,,,,,,,,,,,,,,,,,,,,,,,,,,,,,,,,,,,,,,,,,,,,,,,,,,,,,,,,,,,,,,,,,,,,,,,,,,,,,,635.3069428046983,None,635.8077274772668,None,635.8077274772668,None,right,1,1.4141919732792303,635.8077274772668,None,,,,,,,,,,,,,637.2376526727776,None,,,,,,,,,,,,,,,,,,,,,,,,,,,,,,,,,629.3165994250539,None,629.3165994250539,None,629.8166637319619,None,634.8175435017783,634.8175435017783,0.009881518130896438,None,634.8175435017783,634.8175435017783,638.7382032746164,None,638.7382032746164,None,None,0.008196067752578529,None,,NENA_032,001,2021_Mar_01_1036,test7,3.2.4,99.95739278471328,
150,16,Forskaren gav en föreläsning som studenterna inte kunde följa.  ,6,,7,,cor,1,no,151,152,,,,,,,,,,,,,0,8,8,8,,,,,,,,,,,,,,,,,,,,,,,,,,,,,,,,,,,,,,,,,,,,,,,,,,,,,,,,,,,,,,,,,,,,,,,,,,,,,,,,,,,,,,,,,,,,,644.7385948251058,None,645.2393519146617,None,645.2393519146617,None,right,0,2.8303638295610654,645.2393519146617,None,,,,,,,,,,,,,648.0803765786859,None,,,,,,,,,,,,,,,,,,,,,,,,,,,,,,,,,638.7481401512123,None,638.7481401512123,None,639.2482423045794,None,644.2491775611543,644.2491775611543,0.009882480328087695,None,644.2491775611543,644.2491775611543,649.5800923132874,None,649.5800923132874,None,None,0.00774640049712616,None,,NENA_032,001,2021_Mar_01_1036,test7,3.2.4,99.95739278471328,
130,69,Smeder hamrar ofta järn som har hög temperatur.,3,,4,,cor,1,no,137,138,,,,,,,,,,,,,0,9,9,9,,,,,,,,,,,,,,,,,,,,,,,,,,,,,,,,,,,,,,,,,,,,,,,,,,,,,,,,,,,,,,,,,,,,,,,,,,,,,,,,,,,,,,,,,,,,,655.0803938982526,None,655.5811497048771,None,655.5811497048771,None,right,0,1.98431617060578,655.5811497048771,None,,,,,,,,,,,,,657.581217058746,None,,,,,,,,,,,,,,,,,,,,,,,,,,,,,,,,,649.5901048828027,None,649.5901048828027,None,650.0901986971194,None,654.5909445610305,654.5909445610305,0.009881838863293524,None,654.5909445610305,654.5909445610305,659.0816938920625,None,659.0816938920625,None,None,0.008053341698541772,None,,NENA_032,001,2021_Mar_01_1036,test7,3.2.4,99.95739278471328,
150,116,Kanalen visade filmer som familjen hade inte sett.  ,6,,7,,inc,1,no,153,154,,,,,,,,,,,,,0,10,10,10,,,,,,,,,,,,,,,,,,,,,,,,,,,,,,,,,,,,,,,,,,,,,,,,,,,,,,,,,,,,,,,,,,,,,,,,,,,,,,,,,,,,,,,,,,,,,664.5820297954269,None,665.0827942618353,None,665.0827942618353,None,right,1,2.1545341501750954,665.0827942618353,None,,,,,,,,,,,,,667.2530083926122,None,,,,,,,,,,,,,,,,,,,,,,,,,,,,,,,,,659.0917619483353,None,659.0917619483353,None,659.5918352357594,None,664.0926038716925,664.0926038716925,0.009880876665192773,None,664.0926038716925,664.0926038716925,668.7534092122769,None,668.7534092122769,None,None,0.008598266567787505,None,,NENA_032,001,2021_Mar_01_1036,test7,3.2.4,99.95739278471328,
160,57,Den första månlandningen omfattade tre förväntansfulla astronauter som de hårt arbetande kollegorna i kontrollrummet skulle inte släppa ur sikte en sekund.,15,,16,,inc,1,no,163,164,,,,,,,,,,,,,0,11,11,11,,,,,,,,,,,,,,,,,,,,,,,,,,,,,,,,,,,,,,,,,,,,,,,,,,,,,,,,,,,,,,,,,,,,,,,,,,,,,,,,,,,,,,,,,,,,,680.7548315976883,None,681.2555187675134,None,681.2555187675134,None,left,0,1.3013941288591013,681.2555187675134,None,,,,,,,,,,,,,682.5755057714241,None,,,,,,,,,,,,,,,,,,,,,,,,,,,,,,,,,668.7634275549808,None,668.7634275549808,None,669.2635095021869,None,680.2654043910234,680.2654043910234,0.009876707141302177,None,680.2654043910234,680.2654043910234,684.0760913331287,None,684.0760913331287,None,None,0.007670707578654401,None,,NENA_032,001,2021_Mar_01_1036,test7,3.2.4,99.95739278471328,
130,51,Snickare tillverkar ofta möbler från gammalt trä.,3,,4,,cor,1,no,135,136,,,,,,,,,,,,,0,12,12,12,,,,,,,,,,,,,,,,,,,,,,,,,,,,,,,,,,,,,,,,,,,,,,,,,,,,,,,,,,,,,,,,,,,,,,,,,,,,,,,,,,,,,,,,,,,,,689.0762631817133,None,689.5770266859236,None,689.5770266859236,None,left,1,0.6597632158718625,689.5770266859236,None,,,,,,,,,,,,,690.2469003589313,None,,,,,,,,,,,,,,,,,,,,,,,,,,,,,,,,,684.0860740745011,None,684.0860740745011,None,684.5861688510167,None,688.5868491250894,688.5868491250894,0.009884083992801607,None,688.5868491250894,688.5868491250894,691.7474038130622,None,691.7474038130622,None,None,0.007730043129413389,None,,NENA_032,001,2021_Mar_01_1036,test7,3.2.4,99.95739278471328,
180,59,Bankrånet som genomfördes under onsdagen på ett växlingskontor i centrala Norrköping var ganska välplanerad och rånarna lyckades fly. ,14,,0,,inc,1,no,182,199,,,,,,,,,,,,,0,13,13,13,,,,,,,,,,,,,,,,,,,,,,,,,,,,,,,,,,,,,,,,,,,,,,,,,,,,,,,,,,,,,,,,,,,,,,,,,,,,,,,,,,,,,,,,,,,,,702.2485412274627,None,702.7492251899621,None,702.7492251899621,None,left,0,1.6790822297725754,702.7492251899621,None,,,,,,,,,,,,,704.4393419078015,None,,,,,,,,,,,,,,,,,,,,,,,,,,,,,,,,,691.7574205521023,None,691.7574205521023,None,692.2575271957276,None,701.7591339062255,701.7591339062255,0.00988312179379136,None,701.7591339062255,701.7591339062255,705.9398751900744,None,705.9398751900744,None,None,0.007754739547635836,None,,NENA_032,001,2021_Mar_01_1036,test7,3.2.4,99.95739278471328,
160,12,Kyparen på restaurangen öppnade en flaska rött vin som det unga paret vid bordet nära entrédörren ville inte dricka upp.,17,,18,,inc,1,no,163,164,,,,,,,,,,,,,0,14,14,14,,,,,,,,,,,,,,,,,,,,,,,,,,,,,,,,,,,,,,,,,,,,,,,,,,,,,,,,,,,,,,,,,,,,,,,,,,,,,,,,,,,,,,,,,,,,,717.4411800269481,None,717.9419473799499,None,717.9419473799499,None,right,1,1.4619189245440793,717.9419473799499,None,,,,,,,,,,,,,719.4221602566631,None,,,,,,,,,,,,,,,,,,,,,,,,,,,,,,,,,705.9498675534278,None,705.9498675534278,None,706.449954953091,None,716.9517185018831,716.9517185018831,0.009881838863293524,None,716.9517185018831,716.9517185018831,720.9224478576816,None,720.9224478576816,None,None,0.0078499971614292,None,,NENA_032,001,2021_Mar_01_1036,test7,3.2.4,99.95739278471328,
150,83,Sekreteraren skrev brev som brevbäraren inte hade tagit med sig. ,6,,7,,cor,1,no,151,152,,,,,,,,,,,,,0,15,15,15,,,,,,,,,,,,,,,,,,,,,,,,,,,,,,,,,,,,,,,,,,,,,,,,,,,,,,,,,,,,,,,,,,,,,,,,,,,,,,,,,,,,,,,,,,,,,727.4228876784437,None,727.9236752376064,None,727.9236752376064,None,right,0,1.5920623145166246,727.9236752376064,None,,,,,,,,,,,,,729.5336915276212,None,,,,,,,,,,,,,,,,,,,,,,,,,,,,,,,,,720.932457861335,None,720.932457861335,None,721.4325394878088,None,726.9335066572885,726.9335066572885,0.009883763260404521,None,726.9335066572885,726.9335066572885,731.0341953024845,None,731.0341953024845,None,None,0.00829228756538214,None,,NENA_032,001,2021_Mar_01_1036,test7,3.2.4,99.95739278471328,
160,34,Den nya medicinen mildrar de flesta typer av huvudvärk som många andra liknande substanser på marknaden inte kan klara av.,17,,18,,cor,1,no,161,162,,,,,,,,,,,,,0,16,16,16,,,,,,,,,,,,,,,,,,,,,,,,,,,,,,,,,,,,,,,,,,,,,,,,,,,,,,,,,,,,,,,,,,,,,,,,,,,,,,,,,,,,,,,,,,,,,742.5355360614212,None,743.0362796802037,None,743.0362796802037,None,left,1,1.8870613539211263,743.0362796802037,None,,,,,,,,,,,,,744.9364006285077,None,,,,,,,,,,,,,,,,,,,,,,,,,,,,,,,,,731.0442008158798,None,731.0442008158798,None,731.5442795557592,None,742.046112062083,742.046112062083,0.009879593733785441,None,742.046112062083,742.046112062083,746.4368825935471,None,746.4368825935471,None,None,0.00864445207753306,None,,NENA_032,001,2021_Mar_01_1036,test7,3.2.4,99.95739278471328,
130,75,Turister besöker ofta städer som de läst om på bloggar.,3,,4,,cor,1,no,137,138,,,,,,,,,,,,,0,17,17,17,,,,,,,,,,,,,,,,,,,,,,,,,,,,,,,,,,,,,,,,,,,,,,,,,,,,,,,,,,,,,,,,,,,,,,,,,,,,,,,,,,,,,,,,,,,,,752.9373272252997,None,753.4380900880442,None,753.4380900880442,None,left,1,0.7170194566087957,753.4380900880442,None,,,,,,,,,,,,,754.167961624973,None,,,,,,,,,,,,,,,,,,,,,,,,,,,,,,,,,746.4468492982851,None,746.4468492982851,None,746.9469575455732,None,752.4478865478604,752.4478865478604,0.00988312179379136,None,752.4478865478604,752.4478865478604,755.6684743803526,None,755.6684743803526,None,None,0.007743193171336316,None,,NENA_032,001,2021_Mar_01_1036,test7,3.2.4,99.95739278471328,
170,7,Lagen är väldigt viktig och stöds av många. ,4,,0,,cor,1,no,171,199,,,,,,,,,,,,,0,18,18,18,,,,,,,,,,,,,,,,,,,,,,,,,,,,,,,,,,,,,,,,,,,,,,,,,,,,,,,,,,,,,,,,,,,,,,,,,,,,,,,,,,,,,,,,,,,,,761.1487712248872,None,761.6492682002181,None,761.6492682002181,None,left,1,0.841592040183059,761.6492682002181,None,,,,,,,,,,,,,762.5096384989574,None,,,,,,,,,,,,,,,,,,,,,,,,,,,,,,,,,755.678480855946,None,755.678480855946,None,756.1785554262997,None,760.6593401694299,760.6593401694299,0.009882801061394275,None,760.6593401694299,760.6593401694299,764.009911346272,None,764.009911346272,None,None,0.007987912224962201,None,,NENA_032,001,2021_Mar_01_1036,test7,3.2.4,99.95739278471328,
170,115,Kycklingen är perfekt tillagat idag.   ,4,,0,,inc,1,no,172,199,,,,,,,,,,,,,0,19,19,19,,,,,,,,,,,,,,,,,,,,,,,,,,,,,,,,,,,,,,,,,,,,,,,,,,,,,,,,,,,,,,,,,,,,,,,,,,,,,,,,,,,,,,,,,,,,,768.0099472041884,None,768.5107046144776,None,768.5107046144776,None,left,0,0.6040641324298122,768.5107046144776,None,,,,,,,,,,,,,769.1307819687918,None,,,,,,,,,,,,,,,,,,,,,,,,,,,,,,,,,764.0199197462616,None,764.0199197462616,None,764.5199901470905,None,767.5205254499797,767.5205254499797,0.00988248032899719,None,767.5205254499797,767.5205254499797,770.6310689283455,None,770.6310689283455,None,None,0.007926331545604626,None,,NENA_032,001,2021_Mar_01_1036,test7,3.2.4,99.95739278471328,
140,49,Modeller röker gärna cigaretter för att bli mindre hungrigt.,3,,4,,inc,1,no,135,136,,,,,,,,,,,,,0,20,20,20,,,,,,,,,,,,,,,,,,,,,,,,,,,,,,,,,,,,,,,,,,,,,,,,,,,,,,,,,,,,,,,,,,,,,,,,,,,,,,,,,,,,,,,,,,,,,776.6314146140576,None,777.1321944756355,None,777.1321944756355,None,left,0,0.9504365332513771,777.1321944756355,None,,,,,,,,,,,,,778.0924412602099,None,,,,,,,,,,,,,,,,,,,,,,,,,,,,,,,,,770.6411001003571,None,770.6411001003571,None,771.1411538230859,None,776.1420287819119,776.1420287819119,0.009883121794700855,None,776.1420287819119,776.1420287819119,779.5925915876296,None,779.5925915876296,None,None,0.00814026026182546,None,,NENA_032,001,2021_Mar_01_1036,test7,3.2.4,99.95739278471328,
150,40,Nätet sprider information som tidningar inte kan kontrollera.  ,6,,7,,cor,1,no,151,152,,,,,,,,,,,,,0,21,21,21,,,,,,,,,,,,,,,,,,,,,,,,,,,,,,,,,,,,,,,,,,,,,,,,,,,,,,,,,,,,,,,,,,,,,,,,,,,,,,,,,,,,,,,,,,,,,785.0929146616863,None,785.593617226682,None,785.593617226682,None,left,1,1.9765996623964384,785.593617226682,None,,,,,,,,,,,,,787.5837486020064,None,,,,,,,,,,,,,,,,,,,,,,,,,,,,,,,,,779.6026317401574,None,779.6026317401574,None,780.1026081663031,None,784.6034871342881,784.6034871342881,0.009878310803287604,None,784.6034871342881,784.6034871342881,789.0842494902754,None,789.0842494902754,None,None,0.008675563150973176,None,,NENA_032,001,2021_Mar_01_1036,test7,3.2.4,99.95739278471328,
180,53,Solen som ju faktiskt är den närmaste stjärnan sett från jorden är ganska litet och det finns klart större.,14,,0,,inc,1,no,182,199,,,,,,,,,,,,,0,22,22,22,,,,,,,,,,,,,,,,,,,,,,,,,,,,,,,,,,,,,,,,,,,,,,,,,,,,,,,,,,,,,,,,,,,,,,,,,,,,,,,,,,,,,,,,,,,,,800.085510867867,None,800.5862766172058,None,800.5862766172058,None,left,0,3.295741856355562,800.5862766172058,None,,,,,,,,,,,,,803.8968324758544,None,,,,,,,,,,,,,,,,,,,,,,,,,,,,,,,,,789.0942665500479,None,789.0942665500479,None,789.5943401582044,None,799.5960451732772,799.5960451732772,0.009879914467092021,None,799.5960451732772,799.5960451732772,805.3970857584736,None,805.3970857584736,None,None,0.007850959359529952,None,,NENA_032,001,2021_Mar_01_1036,test7,3.2.4,99.95739278471328,
150,15,Snickaren använde trä som kunden ville inte köpa.  ,6,,7,,inc,1,no,153,154,,,,,,,,,,,,,0,23,23,23,,,,,,,,,,,,,,,,,,,,,,,,,,,,,,,,,,,,,,,,,,,,,,,,,,,,,,,,,,,,,,,,,,,,,,,,,,,,,,,,,,,,,,,,,,,,,810.8973809287836,None,811.3981566208367,None,811.3981566208367,None,right,1,1.4594393399829642,811.3981566208367,None,,,,,,,,,,,,,812.8681169558231,None,,,,,,,,,,,,,,,,,,,,,,,,,,,,,,,,,805.4070899889375,None,805.4070899889375,None,805.9071677666188,None,810.407976814874,810.407976814874,0.009884083990982617,None,810.407976814874,810.407976814874,814.3686454271046,None,814.3686454271046,None,None,0.008140580993313051,None,,NENA_032,001,2021_Mar_01_1036,test7,3.2.4,99.95739278471328,
180,29,Rymddräkten som astronauten skulle ha på sig under den långa rymdfärden blev faktiskt färdigt i god tid. ,14,,0,,inc,1,no,182,199,,,,,,,,,,,,,0,24,24,24,,,,,,,,,,,,,,,,,,,,,,,,,,,,,,,,,,,,,,,,,,,,,,,,,,,,,,,,,,,,,,,,,,,,,,,,,,,,,,,,,,,,,,,,,,,,,824.3597126363229,None,824.8604684429483,None,824.8604684429483,None,left,0,1.7727509340538745,824.8604684429483,None,,,,,,,,,,,,,826.6507531926536,None,,,,,,,,,,,,,,,,,,,,,,,,,,,,,,,,,814.3786535063618,None,814.3786535063618,None,814.8787229449936,None,823.8703149370676,823.8703149370676,0.009881838863293524,None,823.8703149370676,823.8703149370676,828.1510260399673,None,828.1510260399673,None,None,0.007319505262785242,None,,NENA_032,001,2021_Mar_01_1036,test7,3.2.4,99.95739278471328,
170,76,Gitarren är redan stämd och mikrofonerna är på plats. ,4,,0,,cor,1,no,171,199,,,,,,,,,,,,,0,25,25,25,,,,,,,,,,,,,,,,,,,,,,,,,,,,,,,,,,,,,,,,,,,,,,,,,,,,,,,,,,,,,,,,,,,,,,,,,,,,,,,,,,,,,,,,,,,,,834.1514092514062,None,834.6521586433773,None,834.6521586433773,None,left,1,1.5808623283719498,834.6521586433773,None,,,,,,,,,,,,,836.242259035922,None,,,,,,,,,,,,,,,,,,,,,,,,,,,,,,,,,828.1610360436207,None,828.1610360436207,None,828.6610868797552,None,833.661988780128,833.661988780128,0.00988215959569061,None,833.661988780128,833.661988780128,837.7426877593325,None,837.7426877593325,None,None,0.008560740841858205,None,,NENA_032,001,2021_Mar_01_1036,test7,3.2.4,99.95739278471328,
150,90,Luftmadrassen har hål men pojken kan inte se dem utan förstoringsglas. ,6,,7,,cor,1,no,155,156,,,,,,,,,,,,,0,26,26,26,,,,,,,,,,,,,,,,,,,,,,,,,,,,,,,,,,,,,,,,,,,,,,,,,,,,,,,,,,,,,,,,,,,,,,,,,,,,,,,,,,,,,,,,,,,,,844.743235185917,None,845.2440044633158,None,845.2440044633158,None,right,0,1.1088454552655094,845.2440044633158,None,,,,,,,,,,,,,846.3641868575924,None,,,,,,,,,,,,,,,,,,,,,,,,,,,,,,,,,837.752724063067,None,837.752724063067,None,838.2527793894596,None,844.2538208085607,844.2538208085607,0.00988248032899719,None,844.2538208085607,844.2538208085607,847.8644558561136,None,847.8644558561136,None,None,0.007900993661678513,None,,NENA_032,001,2021_Mar_01_1036,test7,3.2.4,99.95739278471328,
180,5,Blomman som grannen hade lämnat utan vatten i nästan en vecka var väldigt torrt vid kvinnans hemkomst. ,14,,0,,inc,1,no,182,199,,,,,,,,,,,,,0,27,27,27,,,,,,,,,,,,,,,,,,,,,,,,,,,,,,,,,,,,,,,,,,,,,,,,,,,,,,,,,,,,,,,,,,,,,,,,,,,,,,,,,,,,,,,,,,,,,857.8655017013261,None,858.3661009903899,None,858.3661009903899,None,right,1,1.0983953421909973,858.3661009903899,None,,,,,,,,,,,,,859.4764240612394,None,,,,,,,,,,,,,,,,,,,,,,,,,,,,,,,,,847.8744315413678,None,847.8744315413678,None,848.3745163751682,None,857.3760744946612,857.3760744946612,0.009882801061394275,None,857.3760744946612,857.3760744946612,860.9767286610913,None,860.9767286610913,None,None,0.007756343210530758,None,,NENA_032,001,2021_Mar_01_1036,test7,3.2.4,99.95739278471328,
150,68,Kunden visade kvittot som säljaren hade inte utfärdat.  ,6,,7,,inc,1,no,153,154,,,,,,,,,,,,,0,28,28,28,,,,,,,,,,,,,,,,,,,,,,,,,,,,,,,,,,,,,,,,,,,,,,,,,,,,,,,,,,,,,,,,,,,,,,,,,,,,,,,,,,,,,,,,,,,,,866.4770071533012,None,866.9777712989771,None,866.9777712989771,None,left,0,1.4303617127252437,866.9777712989771,None,,,,,,,,,,,,,868.4180192766771,None,,,,,,,,,,,,,,,,,,,,,,,,,,,,,,,,,860.9867338537542,None,860.9867338537542,None,861.4868254229423,None,865.9875760978439,865.9875760978439,0.009882480328087695,None,865.9875760978439,865.9875760978439,869.9182565226611,None,869.9182565226611,None,None,0.007988874424881942,None,,NENA_032,001,2021_Mar_01_1036,test7,3.2.4,99.95739278471328,
180,38,Plånboken som hittades i den tomma tunnelbanevagnen sent i fredags kväll var alldeles full med sedlar.  ,14,,0,,cor,1,no,181,199,,,,,,,,,,,,,0,29,29,29,,,,,,,,,,,,,,,,,,,,,,,,,,,,,,,,,,,,,,,,,,,,,,,,,,,,,,,,,,,,,,,,,,,,,,,,,,,,,,,,,,,,,,,,,,,,,879.4192374195,None,879.9199916224616,None,879.9199916224616,None,right,0,1.360002899423307,879.9199916224616,None,,,,,,,,,,,,,881.2899651395619,None,,,,,,,,,,,,,,,,,,,,,,,,,,,,,,,,,869.9282543384707,None,869.9282543384707,None,870.428346228392,None,878.929824966539,878.929824966539,0.009884725457595778,None,878.929824966539,878.929824966539,882.7904124654688,None,882.7904124654688,None,None,0.007907408315986686,None,,NENA_032,001,2021_Mar_01_1036,test7,3.2.4,99.95739278471328,
180,17,Skjortan som reseledaren inför denna speciella dag hade strukit kvällen innan var otroligt skrynklig på morgonen.  ,14,,0,,cor,1,no,181,199,,,,,,,,,,,,,0,30,30,30,,,,,,,,,,,,,,,,,,,,,,,,,,,,,,,,,,,,,,,,,,,,,,,,,,,,,,,,,,,,,,,,,,,,,,,,,,,,,,,,,,,,,,,,,,,,,892.291490865051,None,892.7921642433703,None,892.7921642433703,None,left,1,1.2793514528066225,892.7921642433703,None,,,,,,,,,,,,,894.0824222118945,None,,,,,,,,,,,,,,,,,,,,,,,,,,,,,,,,,882.8005058596264,None,882.8005058596264,None,883.3005894104963,None,891.8020646205841,891.8020646205841,0.009882801061394275,None,891.8020646205841,891.8020646205841,895.5827303398064,None,895.5827303398064,None,None,0.0076700661120412406,None,,NENA_032,001,2021_Mar_01_1036,test7,3.2.4,99.95739278471328,
160,23,Mannen med den vita bilen upptäckte en allvarlig balkongbrand som de nya hyresgästerna i lägenheten bredvid hade inte brytt sig om.,17,,18,,inc,1,no,163,164,,,,,,,,,,,,,0,31,31,31,,,,,,,,,,,,,,,,,,,,,,,,,,,,,,,,,,,,,,,,,,,,,,,,,,,,,,,,,,,,,,,,,,,,,,,,,,,,,,,,,,,,,,,,,,,,,907.5741166780681,None,908.0748827481402,None,908.0748827481402,None,right,1,3.5803132339769945,908.0748827481402,None,,,,,,,,,,,,,911.6652349158603,None,,,,,,,,,,,,,,,,,,,,,,,,,,,,,,,,,895.5927259104874,None,895.5927259104874,None,896.0928133101506,None,907.0846929994632,907.0846929994632,0.00988312179379136,None,907.0846929994632,907.0846929994632,913.1657624249447,None,913.1657624249447,None,None,0.00814795784663147,None,,NENA_032,001,2021_Mar_01_1036,test7,3.2.4,99.95739278471328,
160,37,Den tuffa bostadsmarknaden ställde väldigt höga krav som många unga bostadssökande utan hjälp från föräldrar inte kunde klara av.,16,,17,,cor,1,no,161,162,,,,,,,,,,,,,0,32,32,32,,,,,,,,,,,,,,,,,,,,,,,,,,,,,,,,,,,,,,,,,,,,,,,,,,,,,,,,,,,,,,,,,,,,,,,,,,,,,,,,,,,,,,,,,,,,,924.1669798621551,None,924.6677651761893,None,924.6677651761893,None,left,1,3.650890145519952,924.6677651761893,None,,,,,,,,,,,,,928.3281615184251,None,,,,,,,,,,,,,,,,,,,,,,,,,,,,,,,,,913.175771466399,None,913.175771466399,None,913.6756779728148,None,923.6775718994522,923.6775718994522,0.009877990069981024,None,923.6775718994522,923.6775718994522,929.8286258431663,None,929.8286258431663,None,None,0.008616548331701779,None,,NENA_032,001,2021_Mar_01_1036,test7,3.2.4,99.95739278471328,
140,57,Pensionärer matar ibland fåglar med torr bröd.,3,,4,,inc,1,no,135,136,,,,,,,,,,,,,0,33,33,33,,,,,,,,,,,,,,,,,,,,,,,,,,,,,,,,,,,,,,,,,,,,,,,,,,,,,,,,,,,,,,,,,,,,,,,,,,,,,,,,,,,,,,,,,,,,,934.8288599138959,None,935.3295948728946,None,935.3295948728946,None,left,0,0.7968828629627751,935.3295948728946,None,,,,,,,,,,,,,936.1395075020982,None,,,,,,,,,,,,,,,,,,,,,,,,,,,,,,,,,929.8386637505646,None,929.8386637505646,None,930.3387056061829,None,934.3394400840834,934.3394400840834,0.009882159596600104,None,934.3394400840834,934.3394400840834,937.639987222009,None,937.639987222009,None,None,0.00762388060320518,None,,NENA_032,001,2021_Mar_01_1036,test7,3.2.4,99.95739278471328,
170,78,Slaget var mycket våldsamt och många skadades.  ,4,,0,,cor,1,no,173,199,,,,,,,,,,,,,0,34,34,34,,,,,,,,,,,,,,,,,,,,,,,,,,,,,,,,,,,,,,,,,,,,,,,,,,,,,,,,,,,,,,,,,,,,,,,,,,,,,,,,,,,,,,,,,,,,,942.6401940304586,None,943.1409511200145,None,943.1409511200145,None,right,0,3.1853353950027667,943.1409511200145,None,,,,,,,,,,,,,946.3411928883297,None,,,,,,,,,,,,,,,,,,,,,,,,,,,,,,,,,937.6500033195834,None,937.6500033195834,None,938.1500984168306,None,942.1507257700068,942.1507257700068,0.009883442527097941,None,942.1507257700068,942.1507257700068,947.8417296986618,None,947.8417296986618,None,None,0.008028645280319324,None,,NENA_032,001,2021_Mar_01_1036,test7,3.2.4,99.95739278471328,
140,44,Piloter flyger ofta flygplan i dålig väder.,3,,4,,inc,1,no,135,136,,,,,,,,,,,,,0,35,35,35,,,,,,,,,,,,,,,,,,,,,,,,,,,,,,,,,,,,,,,,,,,,,,,,,,,,,,,,,,,,,,,,,,,,,,,,,,,,,,,,,,,,,,,,,,,,,952.8419666559857,None,953.3427211796807,None,953.3427211796807,None,right,1,1.7754890291771517,953.3427211796807,None,,,,,,,,,,,,,955.1329539706867,None,,,,,,,,,,,,,,,,,,,,,,,,,,,,,,,,,947.8518006415297,None,947.8518006415297,None,948.3518822680035,None,952.3525503542332,952.3525503542332,0.009883763259495026,None,952.3525503542332,952.3525503542332,956.6332842291558,None,956.6332842291558,None,None,0.008316983983604587,None,,NENA_032,001,2021_Mar_01_1036,test7,3.2.4,99.95739278471328,
150,108,Fällan fångade djuret som jägaren ville inte ta hem.  ,6,,7,,inc,1,no,153,154,,,,,,,,,,,,,0,36,36,36,,,,,,,,,,,,,,,,,,,,,,,,,,,,,,,,,,,,,,,,,,,,,,,,,,,,,,,,,,,,,,,,,,,,,,,,,,,,,,,,,,,,,,,,,,,,,962.6236570520623,None,963.1243923317943,None,963.1243923317943,None,right,1,3.297442060438698,963.1243923317943,None,,,,,,,,,,,,,966.4349558880267,None,,,,,,,,,,,,,,,,,,,,,,,,,,,,,,,,,956.6432785169063,None,956.6432785169063,None,957.1433710482925,None,962.1342269588022,962.1342269588022,0.009884083991892112,None,962.1342269588022,962.1342269588022,967.9352454134414,None,967.9352454134414,None,None,0.007918313227492035,None,,NENA_032,001,2021_Mar_01_1036,test7,3.2.4,99.95739278471328,
180,48,Golvet som de små barnen skulle springa runt på i idrottshallen var fruktansvärt sliten efter alla år. ,14,,0,,inc,1,no,182,199,,,,,,,,,,,,,0,37,37,37,,,,,,,,,,,,,,,,,,,,,,,,,,,,,,,,,,,,,,,,,,,,,,,,,,,,,,,,,,,,,,,,,,,,,,,,,,,,,,,,,,,,,,,,,,,,,977.9363060123587,None,978.4370576494584,None,978.4370576494584,None,left,0,0.72036149142059,978.4370576494584,None,,,,,,,,,,,,,979.1677640536245,None,,,,,,,,,,,,,,,,,,,,,,,,,,,,,,,,,967.9452483609757,None,967.9452483609757,None,968.445305932496,None,977.4468339031146,977.4468339031146,0.009881518130896438,None,977.4468339031146,977.4468339031146,980.6674631101259,None,980.6674631101259,None,None,0.007721704077994218,None,,NENA_032,001,2021_Mar_01_1036,test7,3.2.4,99.95739278471328,
170,8,Reformen är mycket kritiserat av miljöskäl.  ,4,,0,,inc,1,no,172,199,,,,,,,,,,,,,0,38,38,38,,,,,,,,,,,,,,,,,,,,,,,,,,,,,,,,,,,,,,,,,,,,,,,,,,,,,,,,,,,,,,,,,,,,,,,,,,,,,,,,,,,,,,,,,,,,,985.167561350554,None,985.6683168364461,None,985.6683168364461,None,right,1,6.184764811516288,985.6683168364461,None,,,,,,,,,,,,,991.8691570919937,None,,,,,,,,,,,,,,,,,,,,,,,,,,,,,,,,,980.6774689442536,None,980.6774689442536,None,981.1775403072807,None,984.6781415207406,984.6781415207406,0.009879914468001516,None,984.6781415207406,984.6781415207406,993.3696583009951,None,993.3696583009951,None,None,0.008682940002472606,None,,NENA_032,001,2021_Mar_01_1036,test7,3.2.4,99.95739278471328,
170,1,Trädet är mycket gammalt och måste därför fällas snart. ,4,,0,,cor,1,no,173,199,,,,,,,,,,,,,0,39,39,39,,,,,,,,,,,,,,,,,,,,,,,,,,,,,,,,,,,,,,,,,,,,,,,,,,,,,,,,,,,,,,,,,,,,,,,,,,,,,,,,,,,,,,,,,,,,,999.3700267587292,None,999.8707841690184,None,999.8707841690184,None,left,1,0.8060978343810348,999.8707841690184,None,,,,,,,,,,,,,1000.6911645515947,None,,,,,,,,,,,,,,,,,,,,,,,,,,,,,,,,,993.3796596448656,None,993.3796596448656,None,993.8797537799146,None,998.8806114191748,998.8806114191748,0.009881838863293524,None,998.8806114191748,998.8806114191748,1002.1911679834348,None,1002.1911679834348,None,None,0.0077617956667381804,None,,NENA_032,001,2021_Mar_01_1036,test7,3.2.4,99.95739278471328,
140,71,Programmerare utvecklar gärna program för moderna mobiltelefon.,3,,4,,inc,1,no,137,138,,,,,,,,,,,,,0,40,40,40,,,,,,,,,,,,,,,,,,,,,,,,,,,,,,,,,,,,,,,,,,,,,,,,,,,,,,,,,,,,,,,,,,,,,,,,,,,,,,,,,,,,,,,,,,,,,1007.1913892248558,None,1007.6921572193241,None,1007.6921572193241,None,left,0,7.1442970036187035,1007.6921572193241,None,,,,,,,,,,,,,1014.8533494597732,None,,,,,,,,,,,,,,,,,,,,,,,,,,,,,,,,,1002.2011863261378,None,1002.2011863261378,None,1002.7012583306305,None,1006.7019556035366,1006.7019556035366,0.009883121794700855,None,1006.7019556035366,1006.7019556035366,1016.3536229485535,None,1016.3536229485535,None,None,0.007782322560160537,None,,NENA_032,001,2021_Mar_01_1036,test7,3.2.4,99.95739278471328,
170,74,Handfatet blev nyligen installerad i det nya huset. ,4,,0,,inc,1,no,174,199,,,,,,,,,,,,,0,41,41,41,,,,,,,,,,,,,,,,,,,,,,,,,,,,,,,,,,,,,,,,,,,,,,,,,,,,,,,,,,,,,,,,,,,,,,,,,,,,,,,,,,,,,,,,,,,,,1021.8539306274397,None,1022.3546588510517,None,1022.3546588510517,None,left,0,0.937704727696655,1022.3546588510517,None,,,,,,,,,,,,,1023.3051402868823,None,,,,,,,,,,,,,,,,,,,,,,,,,,,,,,,,,1016.3636486681089,None,1016.3636486681089,None,1016.8637181067406,None,1021.3644912329319,1021.3644912329319,0.009883121794700855,None,1021.3644912329319,1021.3644912329319,1024.8050754026553,None,1024.8050754026553,None,None,0.007935953526612138,None,,NENA_032,001,2021_Mar_01_1036,test7,3.2.4,99.95739278471328,
170,89,Seglet är för brett för den starka vinden. ,4,,0,,cor,1,no,173,199,,,,,,,,,,,,,0,42,42,42,,,,,,,,,,,,,,,,,,,,,,,,,,,,,,,,,,,,,,,,,,,,,,,,,,,,,,,,,,,,,,,,,,,,,,,,,,,,,,,,,,,,,,,,,,,,,1030.3053647997776,None,1030.8061478686832,None,1030.8061478686832,None,right,0,2.2700482798945814,1030.8061478686832,None,,,,,,,,,,,,,1033.086371714454,None,,,,,,,,,,,,,,,,,,,,,,,,,,,,,,,,,1024.8151149137175,None,1024.8151149137175,None,1025.3151599766634,None,1029.8159792883644,1029.8159792883644,0.00988280106048478,None,1029.8159792883644,1029.8159792883644,1034.5868065317854,None,1034.5868065317854,None,None,0.008401015952586022,None,,NENA_032,001,2021_Mar_01_1036,test7,3.2.4,99.95739278471328,
130,74,Journalister tar ofta bilder av framstående människor.,3,,4,,cor,1,yes,137,138,,,,,,,,,,,,,0,43,43,43,,,,,,,,,,,,,,,,,,,,,,,,,,,,,,,,,,,,,,,,,,,,,,,,,,,,,,,,,,,,,,,,,,,,,,,,,,,,,,,,,,,,,,,,,,,,,1039.5870085292445,None,1040.0877595248794,None,1040.0877595248794,None,left,1,4.028069243625396,1040.0877595248794,None,,,,,,,,,,,,,1044.1288126699683,None,,,,,,,,,,,,,,,,,,,,,,,,,,,,,,,,,1034.596797291476,None,1034.596797291476,None,1035.0968644849781,None,1039.0975575883595,1039.0975575883595,0.009885046190902358,None,1039.0975575883595,1039.0975575883595,1045.6292143876844,None,1045.6292143876844,None,space,0.007937557190416555,None,103.74823861615369,NENA_032,001,2021_Mar_01_1036,test7,3.2.4,99.95739278471328,
170,16,Båten är kraftigt skadat och måste bogseras.  ,4,,0,,inc,1,no,172,199,,,,,,,,,,,,,0,44,44,44,,,,,,,,,,,,,,,,,,,,,,,,,,,,,,,,,,,,,,,,,,,,,,,,,,,,,,,,,,,,,,,,,,,,,,,,,,,,,,,,,,,,,,,,,,,,,1154.3768744020335,None,1154.8776420757686,None,1154.8776420757686,None,left,0,3.1313410059010494,1154.8776420757686,None,,,,,,,,,,,,,1158.0183818329297,None,,,,,,,,,,,,,,,,,,,,,,,,,,,,,,,,,1149.3873495322596,None,1149.3873495322596,None,1149.8867839201293,None,1153.8874561758848,1153.8874561758848,0.009881518129986944,None,1153.8874561758848,1153.8874561758848,1159.5184385063985,None,1159.5184385063985,None,None,0.008097282078779244,None,,NENA_032,001,2021_Mar_01_1036,test7,3.2.4,99.95739278471328,
140,6,Slaktare säljer ofta kött från den omedelbar omgivning.,3,,4,,inc,1,no,131,132,,,,,,,,,,,,,0,45,45,45,,,,,,,,,,,,,,,,,,,,,,,,,,,,,,,,,,,,,,,,,,,,,,,,,,,,,,,,,,,,,,,,,,,,,,,,,,,,,,,,,,,,,,,,,,,,,1165.018711546153,None,1165.5194683149757,None,1165.5194683149757,None,left,0,4.305380836412951,1165.5194683149757,None,,,,,,,,,,,,,1169.8401997395003,None,,,,,,,,,,,,,,,,,,,,,,,,,,,,,,,,,1159.528442416131,None,1159.528442416131,None,1160.028541041438,None,1164.529334053057,1164.529334053057,0.009880235199489107,None,1164.529334053057,1164.529334053057,1171.3405136406018,None,1171.3405136406018,None,None,0.007795151867867389,None,,NENA_032,001,2021_Mar_01_1036,test7,3.2.4,99.95739278471328,
170,54,Torget var alltid tomt på natten.  ,4,,0,,cor,1,no,173,199,,,,,,,,,,,,,0,46,46,46,,,,,,,,,,,,,,,,,,,,,,,,,,,,,,,,,,,,,,,,,,,,,,,,,,,,,,,,,,,,,,,,,,,,,,,,,,,,,,,,,,,,,,,,,,,,,1175.8405987309889,None,1176.3413548583467,None,1176.3413548583467,None,right,0,2.6190939878333666,1176.3413548583467,None,,,,,,,,,,,,,1178.9720519933371,None,,,,,,,,,,,,,,,,,,,,,,,,,,,,,,,,,1171.3504845148645,None,1171.3504845148645,None,1171.8505696693983,None,1175.3511837121669,1175.3511837121669,0.00987959373560443,None,1175.3511837121669,1175.3511837121669,1180.4720073152712,None,1180.4720073152712,None,None,0.007976686580150272,None,,NENA_032,001,2021_Mar_01_1036,test7,3.2.4,99.95739278471328,
180,52,Pappret som nu satt i den gula skrivmaskinen framför den trötta författaren var helt blankt och idéerna var slut. ,15,,0,,cor,1,no,181,199,,,,,,,,,,,,,0,47,47,47,,,,,,,,,,,,,,,,,,,,,,,,,,,,,,,,,,,,,,,,,,,,,,,,,,,,,,,,,,,,,,,,,,,,,,,,,,,,,,,,,,,,,,,,,,,,,1191.4733209722945,None,1191.9740674776713,None,1191.9740674776713,None,left,1,7.105844359321964,1191.9740674776713,None,,,,,,,,,,,,,1199.095595345655,None,,,,,,,,,,,,,,,,,,,,,,,,,,,,,,,,,1180.4820808240001,None,1180.4820808240001,None,1180.982020686618,None,1190.983910764463,1190.983910764463,0.009882801061394275,None,1190.983910764463,1190.983910764463,1200.5955737603435,None,1200.5955737603435,None,None,0.00794910356762557,None,,NENA_032,001,2021_Mar_01_1036,test7,3.2.4,99.95739278471328,
170,32,Champagnen är redan kylt och gäster förväntas.  ,4,,0,,inc,1,no,172,199,,,,,,,,,,,,,0,48,48,48,,,,,,,,,,,,,,,,,,,,,,,,,,,,,,,,,,,,,,,,,,,,,,,,,,,,,,,,,,,,,,,,,,,,,,,,,,,,,,,,,,,,,,,,,,,,,1205.595766456554,None,1206.096532526626,None,1206.096532526626,None,left,0,7.62305952702809,1206.096532526626,None,,,,,,,,,,,,,1213.7378090299726,None,,,,,,,,,,,,,,,,,,,,,,,,,,,,,,,,,1200.6055632371035,None,1200.6055632371035,None,1201.105635883062,None,1205.1063434194148,1205.1063434194148,0.00987863153568469,None,1205.1063434194148,1205.1063434194148,1215.238092140733,None,1215.238092140733,None,None,0.008019344030799402,None,,NENA_032,001,2021_Mar_01_1036,test7,3.2.4,99.95739278471328,
150,46,Ingripanden kräver resurser men polisen inte hade haft tillgång till dem. ,6,,7,,inc,1,no,157,158,,,,,,,,,,,,,0,49,49,49,,,,,,,,,,,,,,,,,,,,,,,,,,,,,,,,,,,,,,,,,,,,,,,,,,,,,,,,,,,,,,,,,,,,,,,,,,,,,,,,,,,,,,,,,,,,,1222.238649830765,None,1222.7393899214876,None,1222.7393899214876,None,right,1,5.651837269205316,1222.7393899214876,None,,,,,,,,,,,,,1228.4006362053979,None,,,,,,,,,,,,,,,,,,,,,,,,,,,,,,,,,1215.2480854662854,None,1215.2480854662854,None,1215.748173186681,None,1221.749128649417,1221.749128649417,0.009883442527097941,None,1221.749128649417,1221.749128649417,1229.9006242420683,None,1229.9006242420683,None,None,0.008076113719653222,None,,NENA_032,001,2021_Mar_01_1036,test7,3.2.4,99.95739278471328,
150,82,Kocken behövde grönsaker men lärlingen hade inte hämtat dem i tid. ,6,,7,,cor,1,no,155,156,,,,,,,,,,,,,0,50,50,50,,,,,,,,,,,,,,,,,,,,,,,,,,,,,,,,,,,,,,,,,,,,,,,,,,,,,,,,,,,,,,,,,,,,,,,,,,,,,,,,,,,,,,,,,,,,,1236.89119078753,None,1237.3919591027307,None,1237.3919591027307,None,left,1,1.1030097236534857,1237.3919591027307,None,,,,,,,,,,,,,1238.511831348479,None,,,,,,,,,,,,,,,,,,,,,,,,,,,,,,,,,1229.9106358493846,None,1229.9106358493846,None,1230.4107161929278,None,1236.4017411295754,1236.4017411295754,0.009884404725198692,None,1236.4017411295754,1236.4017411295754,1240.0123896479026,None,1240.0123896479026,None,None,0.008677487547174678,None,,NENA_032,001,2021_Mar_01_1036,test7,3.2.4,99.95739278471328,
160,17,Kvinnan i den lilla kiosken sa några ord på franska som den mycket påstridiga turisten från Sverige kunde inte förstå.,18,,19,,inc,1,no,163,164,,,,,,,,,,,,,0,51,51,51,,,,,,,,,,,,,,,,,,,,,,,,,,,,,,,,,,,,,,,,,,,,,,,,,,,,,,,,,,,,,,,,,,,,,,,,,,,,,,,,,,,,,,,,,,,,,1251.5137198226603,None,1252.0144454804113,None,1252.0144454804113,None,right,1,10.583881385347013,1252.0144454804113,None,,,,,,,,,,,,,1262.6161278517548,None,,,,,,,,,,,,,,,,,,,,,,,,,,,,,,,,,1240.0223781624645,None,1240.0223781624645,None,1240.5224944280708,None,1251.0243096148288,1251.0243096148288,0.00988248032899719,None,1251.0243096148288,1251.0243096148288,1264.116568442275,None,1264.116568442275,None,None,0.00795263162763149,None,,NENA_032,001,2021_Mar_01_1036,test7,3.2.4,99.95739278471328,
180,10,Boken som de rekommenderade alla blivande studenter på programmet att läsa var förvånansvärt roligt efter den sega inledningen. ,14,,0,,inc,1,no,182,199,,,,,,,,,,,,,0,52,52,52,,,,,,,,,,,,,,,,,,,,,,,,,,,,,,,,,,,,,,,,,,,,,,,,,,,,,,,,,,,,,,,,,,,,,,,,,,,,,,,,,,,,,,,,,,,,,1274.6177090640022,None,1275.11847224748,None,1275.11847224748,None,right,1,12.255215675105319,1275.11847224748,None,,,,,,,,,,,,,1287.3903131024763,None,,,,,,,,,,,,,,,,,,,,,,,,,,,,,,,,,1264.1265887093741,None,1264.1265887093741,None,1264.626629282062,None,1274.128311364746,1274.128311364746,0.009880555932795687,None,1274.128311364746,1274.128311364746,1288.8908685153056,None,1288.8908685153056,None,None,0.008605964152593515,None,,NENA_032,001,2021_Mar_01_1036,test7,3.2.4,99.95739278471328,
150,6,Systern köpte godis men syskonen inte fick smaka på det. ,6,,7,,inc,1,no,157,158,,,,,,,,,,,,,0,53,53,53,,,,,,,,,,,,,,,,,,,,,,,,,,,,,,,,,,,,,,,,,,,,,,,,,,,,,,,,,,,,,,,,,,,,,,,,,,,,,,,,,,,,,,,,,,,,,1295.3913022421457,None,1295.8920740854064,None,1295.8920740854064,None,left,0,7.593195142438162,1295.8920740854064,None,,,,,,,,,,,,,1303.5030692516439,None,,,,,,,,,,,,,,,,,,,,,,,,,,,,,,,,,1288.9008740287009,None,1288.9008740287009,None,1289.400949881986,None,1294.9018593195779,1294.9018593195779,0.009885046190902358,None,1294.9018593195779,1294.9018593195779,1305.0036541718828,None,1305.0036541718828,None,None,0.007765323727653595,None,,NENA_032,001,2021_Mar_01_1036,test7,3.2.4,99.95739278471328,
180,12,Benet som han inte hade velat röra på under hela helgen kändes otroligt ömt efter den långa promenaden. ,14,,0,,cor,1,no,181,199,,,,,,,,,,,,,0,54,54,54,,,,,,,,,,,,,,,,,,,,,,,,,,,,,,,,,,,,,,,,,,,,,,,,,,,,,,,,,,,,,,,,,,,,,,,,,,,,,,,,,,,,,,,,,,,,,1315.5048108302453,None,1316.0055515624335,None,1316.0055515624335,None,right,0,9.46314701008123,1316.0055515624335,None,,,,,,,,,,,,,1325.4871753423258,None,,,,,,,,,,,,,,,,,,,,,,,,,,,,,,,,,1305.0136619304067,None,1305.0136619304067,None,1305.513727520245,None,1315.0153768881937,1315.0153768881937,0.009880235199489107,None,1315.0153768881937,1315.0153768881937,1326.9874485103728,None,1326.9874485103728,None,None,0.007846469101423281,None,,NENA_032,001,2021_Mar_01_1036,test7,3.2.4,99.95739278471328,
150,20,Klättraren gav signaler som partnern kunde inte se.  ,6,,7,,inc,1,no,153,154,,,,,,,,,,,,,0,55,55,55,,,,,,,,,,,,,,,,,,,,,,,,,,,,,,,,,,,,,,,,,,,,,,,,,,,,,,,,,,,,,,,,,,,,,,,,,,,,,,,,,,,,,,,,,,,,,1332.4877507368028,None,1332.9885139202806,None,1332.9885139202806,None,left,0,8.351799518964981,1332.9885139202806,None,,,,,,,,,,,,,1341.3496255926739,None,,,,,,,,,,,,,,,,,,,,,,,,,,,,,,,,,1326.9974575518281,None,1326.9974575518281,None,1327.4975343673113,None,1331.998332510654,1331.998332510654,0.009883763260404521,None,1331.998332510654,1331.998332510654,1342.8502034567928,None,1342.8502034567928,None,None,0.008126148023620772,None,,NENA_032,001,2021_Mar_01_1036,test7,3.2.4,99.95739278471328,
140,78,Poliser kontrollerar ofta bilar som köra för fort.,3,,4,,inc,1,no,137,138,,,,,,,,,,,,,0,56,56,56,,,,,,,,,,,,,,,,,,,,,,,,,,,,,,,,,,,,,,,,,,,,,,,,,,,,,,,,,,,,,,,,,,,,,,,,,,,,,,,,,,,,,,,,,,,,,1348.3504963819742,None,1348.851242887351,None,1348.851242887351,None,right,1,9.736856133098627,1348.851242887351,None,,,,,,,,,,,,,1358.6029149471378,None,,,,,,,,,,,,,,,,,,,,,,,,,,,,,,,,,1342.8601842737698,None,1342.8601842737698,None,1343.3602938039894,None,1347.8610816838845,1347.8610816838845,0.009881518130896438,None,1347.8610816838845,1347.8610816838845,1360.1032096042763,None,1360.1032096042763,None,None,0.007591807331664313,None,,NENA_032,001,2021_Mar_01_1036,test7,3.2.4,99.95739278471328,
170,98,Tornet var ganska hög men det fanns några högre. ,4,,0,,inc,1,no,174,199,,,,,,,,,,,,,0,57,57,57,,,,,,,,,,,,,,,,,,,,,,,,,,,,,,,,,,,,,,,,,,,,,,,,,,,,,,,,,,,,,,,,,,,,,,,,,,,,,,,,,,,,,,,,,,,,,1366.1035620253751,None,1366.6043248881206,None,1366.6043248881206,None,right,1,7.807248944068306,1366.6043248881206,None,,,,,,,,,,,,,1374.425652073649,None,,,,,,,,,,,,,,,,,,,,,,,,,,,,,,,,,1360.113191704184,None,1360.113191704184,None,1360.6132874428977,None,1365.6141303284521,1365.6141303284521,0.009883121794700855,None,1365.6141303284521,1365.6141303284521,1375.9259213929035,None,1375.9259213929035,None,None,0.007804773848874902,None,,NENA_032,001,2021_Mar_01_1036,test7,3.2.4,99.95739278471328,
130,66,Barn äter ofta mat med för mycket socker.,3,,4,,cor,1,no,137,138,,,,,,,,,,,,,0,58,58,58,,,,,,,,,,,,,,,,,,,,,,,,,,,,,,,,,,,,,,,,,,,,,,,,,,,,,,,,,,,,,,,,,,,,,,,,,,,,,,,,,,,,,,,,,,,,,1381.4262236193335,None,1381.926976860097,None,1381.926976860097,None,right,0,7.94817119813888,1381.926976860097,None,,,,,,,,,,,,,1389.8886454527637,None,,,,,,,,,,,,,,,,,,,,,,,,,,,,,,,,,1375.9359246611693,None,1375.9359246611693,None,1376.4360306633298,None,1380.9368182224925,1380.9368182224925,0.00988215959569061,None,1380.9368182224925,1380.9368182224925,1391.3886071893521,None,1391.3886071893521,None,None,0.007984063434378186,None,,NENA_032,001,2021_Mar_01_1036,test7,3.2.4,99.95739278471328,
170,92,Lektionen var för anspråksfull för de flesta.  ,4,,0,,cor,1,no,171,199,,,,,,,,,,,,,0,59,59,59,,,,,,,,,,,,,,,,,,,,,,,,,,,,,,,,,,,,,,,,,,,,,,,,,,,,,,,,,,,,,,,,,,,,,,,,,,,,,,,,,,,,,,,,,,,,,1396.3887857733234,None,1396.8895797471405,None,1396.8895797471405,None,right,0,5.769297604992971,1396.8895797471405,None,,,,,,,,,,,,,1402.6702569485933,None,,,,,,,,,,,,,,,,,,,,,,,,,,,,,,,,,1391.3986050051617,None,1391.3986050051617,None,1391.8986446156514,None,1395.8993829423434,1395.8993829423434,0.009884083991892112,None,1395.8993829423434,1395.8993829423434,1404.1708351334455,None,1404.1708351334455,None,None,0.00782658367370459,None,,NENA_032,001,2021_Mar_01_1036,test7,3.2.4,99.95739278471328,
140,31,Arbetsgivare sänker ibland lönen utan att informerar facket.,3,,4,,inc,1,no,133,134,,,,,,,,,,,,,0,60,60,60,,,,,,,,,,,,,,,,,,,,,,,,,,,,,,,,,,,,,,,,,,,,,,,,,,,,,,,,,,,,,,,,,,,,,,,,,,,,,,,,,,,,,,,,,,,,,1409.6711226061707,None,1410.1717940600938,None,1410.1717940600938,None,right,1,6.71075490536623,1410.1717940600938,None,,,,,,,,,,,,,1416.8927671887868,None,,,,,,,,,,,,,,,,,,,,,,,,,,,,,,,,,1404.1808050455102,None,1404.1808050455102,None,1404.680912972066,None,1409.181694758041,1409.181694758041,0.009883763258585532,None,1409.181694758041,1409.181694758041,1418.3932818685626,None,1418.3932818685626,None,None,0.007827545870895847,None,,NENA_032,001,2021_Mar_01_1036,test7,3.2.4,99.95739278471328,
150,98,Arrangörerna genomförde tävlingen men idrottarna ville inte delta i den.  ,6,,7,,cor,1,no,155,156,,,,,,,,,,,,,0,61,61,61,,,,,,,,,,,,,,,,,,,,,,,,,,,,,,,,,,,,,,,,,,,,,,,,,,,,,,,,,,,,,,,,,,,,,,,,,,,,,,,,,,,,,,,,,,,,,1424.8937197649284,None,1425.3945355485694,None,1425.3945355485694,None,left,1,4.8476224565492885,1425.3945355485694,None,,,,,,,,,,,,,1430.255105022321,None,,,,,,,,,,,,,,,,,,,,,,,,,,,,,,,,,1418.4032777599768,None,1418.4032777599768,None,1418.9033680462344,None,1424.4043441962294,1424.4043441962294,0.009885687655696529,None,1424.4043441962294,1424.4043441962294,1431.7556177777005,None,1431.7556177777005,None,None,0.007748966358121834,None,,NENA_032,001,2021_Mar_01_1036,test7,3.2.4,99.95739278471328,
160,3,De nya grannarna spelar hitlåtar från 90-talet som de yngre hyresgästerna på våningen ovan inte har hört förut.,15,,16,,cor,1,no,161,162,,,,,,,,,,,,,0,62,62,62,,,,,,,,,,,,,,,,,,,,,,,,,,,,,,,,,,,,,,,,,,,,,,,,,,,,,,,,,,,,,,,,,,,,,,,,,,,,,,,,,,,,,,,,,,,,,1442.266757241583,None,1442.7675140104066,None,1442.7675140104066,None,left,1,7.986144988502929,1442.7675140104066,None,,,,,,,,,,,,,1450.768897330573,None,,,,,,,,,,,,,,,,,,,,,,,,,,,,,,,,,1431.7656223288977,None,1431.7656223288977,None,1432.2656843906761,None,1441.7773197714714,1441.7773197714714,0.009880235199489107,None,1441.7773197714714,1441.7773197714714,1452.2691602351742,None,1452.2691602351742,None,None,0.007644086764230451,None,,NENA_032,001,2021_Mar_01_1036,test7,3.2.4,99.95739278471328,
160,39,Målaren på marken berättade en rolig historia som kollegan på den övre balkongen kunde inte höra.,14,,15,,inc,1,no,163,164,,,,,,,,,,,,,0,63,63,63,,,,,,,,,,,,,,,,,,,,,,,,,,,,,,,,,,,,,,,,,,,,,,,,,,,,,,,,,,,,,,,,,,,,,,,,,,,,,,,,,,,,,,,,,,,,,1461.7601499874427,None,1462.2608650610146,None,1462.2608650610146,None,left,0,12.484214017237719,1462.2608650610146,None,,,,,,,,,,,,,1474.7628184835694,None,,,,,,,,,,,,,,,,,,,,,,,,,,,,,,,,,1452.2791779364115,None,1452.2791779364115,None,1452.779234866467,None,1461.2707205356492,1461.2707205356492,0.009881838863293524,None,1461.2707205356492,1461.2707205356492,1476.2632802424478,None,1476.2632802424478,None,None,0.008002986663086631,None,,NENA_032,001,2021_Mar_01_1036,test7,3.2.4,99.95739278471328,
170,106,Släpet är nu lastad så vi kan åka. ,4,,0,,inc,1,no,174,199,,,,,,,,,,,,,0,64,64,64,,,,,,,,,,,,,,,,,,,,,,,,,,,,,,,,,,,,,,,,,,,,,,,,,,,,,,,,,,,,,,,,,,,,,,,,,,,,,,,,,,,,,,,,,,,,,1481.7635847140073,None,1482.2643729146357,None,1482.2643729146357,None,right,1,4.696346309216096,1482.2643729146357,None,,,,,,,,,,,,,1486.9749219096038,None,,,,,,,,,,,,,,,,,,,,,,,,,,,,,,,,,1476.2732684362772,None,1476.2732684362772,None,1476.7733959275283,None,1481.2741626390653,1481.2741626390653,0.009882480328087695,None,1481.2741626390653,1481.2741626390653,1488.4754455698949,None,1488.4754455698949,None,None,0.007794831135470304,None,,NENA_032,001,2021_Mar_01_1036,test7,3.2.4,99.95739278471328,
170,40,Spenaten är för beskt för barnen.  ,4,,0,,inc,1,no,172,199,,,,,,,,,,,,,0,65,65,65,,,,,,,,,,,,,,,,,,,,,,,,,,,,,,,,,,,,,,,,,,,,,,,,,,,,,,,,,,,,,,,,,,,,,,,,,,,,,,,,,,,,,,,,,,,,,1492.9755409237296,None,1493.4763047486722,None,1493.4763047486722,None,right,1,1.428251612243912,1493.4763047486722,None,,,,,,,,,,,,,1494.916965188634,None,,,,,,,,,,,,,,,,,,,,,,,,,,,,,,,,,1488.4854456308349,None,1488.4854456308349,None,1488.9855054474847,None,1492.4860954352998,1492.4860954352998,0.009884083991892112,None,1492.4860954352998,1492.4860954352998,1496.4168040845952,None,1496.4168040845952,None,None,0.007892333878771751,None,,NENA_032,001,2021_Mar_01_1036,test7,3.2.4,99.95739278471328,
170,53,Programmet är vanligtvis tråkig på lördagskvällen.  ,4,,0,,inc,1,no,174,199,,,,,,,,,,,,,0,66,66,66,,,,,,,,,,,,,,,,,,,,,,,,,,,,,,,,,,,,,,,,,,,,,,,,,,,,,,,,,,,,,,,,,,,,,,,,,,,,,,,,,,,,,,,,,,,,,1500.916921248253,None,1501.4176809036708,None,1501.4176809036708,None,left,0,8.99047744591553,1501.4176809036708,None,,,,,,,,,,,,,1510.4189680040254,None,,,,,,,,,,,,,,,,,,,,,,,,,,,,,,,,,1496.426802862603,None,1496.426802862603,None,1496.926868131709,None,1500.4275068708957,1500.4275068708957,0.009883121794700855,None,1500.4275068708957,1500.4275068708957,1511.9194717788896,None,1511.9194717788896,None,None,0.008076755186266382,None,,NENA_032,001,2021_Mar_01_1036,test7,3.2.4,99.95739278471328,
150,85,Kraftverket genererade elöverskott men konsumenterna hade inte behövt detta under sommaren. ,6,,7,,cor,1,no,155,156,,,,,,,,,,,,,0,67,67,67,,,,,,,,,,,,,,,,,,,,,,,,,,,,,,,,,,,,,,,,,,,,,,,,,,,,,,,,,,,,,,,,,,,,,,,,,,,,,,,,,,,,,,,,,,,,,1518.9200535238742,None,1519.4207958597253,None,1519.4207958597253,None,left,1,10.082904273153872,1519.4207958597253,None,,,,,,,,,,,,,1529.5225537636215,None,,,,,,,,,,,,,,,,,,,,,,,,,,,,,,,,,1511.9294830654735,None,1511.9294830654735,None,1512.4295727102653,None,1518.4305980927302,1518.4305980927302,0.009884083991892112,None,1518.4305980927302,1518.4305980927302,1531.0228073669732,None,1531.0228073669732,None,None,0.007814075098394824,None,,NENA_032,001,2021_Mar_01_1036,test7,3.2.4,99.95739278471328,
140,7,Kor ger ofta mjölk med hög fettinnehåll.,3,,4,,inc,1,no,131,132,,,,,,,,,,,,,0,68,68,68,,,,,,,,,,,,,,,,,,,,,,,,,,,,,,,,,,,,,,,,,,,,,,,,,,,,,,,,,,,,,,,,,,,,,,,,,,,,,,,,,,,,,,,,,,,,,1536.0030062276664,None,1536.5037617135595,None,1536.5037617135595,None,right,1,9.287645279888238,1536.5037617135595,None,,,,,,,,,,,,,1545.805531099686,None,,,,,,,,,,,,,,,,,,,,,,,,,,,,,,,,,1531.0328205779533,None,1531.0328205779533,None,1531.5329169581319,None,1535.5135809453977,1535.5135809453977,0.009883121794700855,None,1535.5135809453977,1535.5135809453977,1547.3056192049607,None,1547.3056192049607,None,None,0.008115563842693518,None,,NENA_032,001,2021_Mar_01_1036,test7,3.2.4,99.95739278471328,
160,60,Bilden av det svarta hålet visar strålning på mycket korta våglängder som det mänskliga ögat med dess begränsningar kan inte uppfatta.,19,,20,,inc,1,no,163,164,,,,,,,,,,,,,0,69,69,69,,,,,,,,,,,,,,,,,,,,,,,,,,,,,,,,,,,,,,,,,,,,,,,,,,,,,,,,,,,,,,,,,,,,,,,,,,,,,,,,,,,,,,,,,,,,,1559.3070181768844,None,1559.8077188174839,None,1559.8077188174839,None,left,0,86.62107579523217,1559.8077188174839,None,,,,,,,,,,,,,1646.4428924188724,None,,,,,,,,,,,,,,,,,,,,,,,,,,,,,,,,,1547.3156397927933,None,1547.3156397927933,None,1547.8156842142735,None,1558.8176275337482,1558.8176275337482,0.009876065673779522,None,1558.8176275337482,1558.8176275337482,1647.9430600658588,None,1647.9430600658588,None,None,0.008429561164120969,None,,NENA_032,001,2021_Mar_01_1036,test7,3.2.4,99.95739278471328,
150,17,Musikern fick ett pris men han inte ville acceptera det.  ,6,,7,,inc,1,no,157,158,,,,,,,,,,,,,0,70,70,70,,,,,,,,,,,,,,,,,,,,,,,,,,,,,,,,,,,,,,,,,,,,,,,,,,,,,,,,,,,,,,,,,,,,,,,,,,,,,,,,,,,,,,,,,,,,,1654.4335090627837,None,1654.934275132855,None,1654.934275132855,None,right,1,4.910045701202762,1654.934275132855,None,,,,,,,,,,,,,1659.8551022640195,None,,,,,,,,,,,,,,,,,,,,,,,,,,,,,,,,,1647.9530578816693,None,1647.9530578816693,None,1648.4531555447784,None,1653.944043368194,1653.944043368194,0.009882159596600104,None,1653.944043368194,1653.944043368194,1661.3553651686198,None,1661.3553651686198,None,None,0.008290042434964562,None,,NENA_032,001,2021_Mar_01_1036,test7,3.2.4,99.95739278471328,
160,10,Lokalerna på Sveavägen inrymmer en hel del arbetsplatser som de undervisande lärarna på den inhysta skolan inte kan använda.,17,,18,,cor,1,no,161,162,,,,,,,,,,,,,0,71,71,71,,,,,,,,,,,,,,,,,,,,,,,,,,,,,,,,,,,,,,,,,,,,,,,,,,,,,,,,,,,,,,,,,,,,,,,,,,,,,,,,,,,,,,,,,,,,,1672.356633281599,None,1672.85738267357,None,1672.85738267357,None,right,0,8.538440616819571,1672.85738267357,None,,,,,,,,,,,,,1681.4088046259922,None,,,,,,,,,,,,,,,,,,,,,,,,,,,,,,,,,1661.3653488721911,None,1661.3653488721911,None,1661.8654584024107,None,1671.8672044712703,1671.8672044712703,0.009882480328087695,None,1671.8672044712703,1671.8672044712703,1682.9091278283413,None,1682.9091278283413,None,None,0.00835354751234263,None,,NENA_032,001,2021_Mar_01_1036,test7,3.2.4,99.95739278471328,
180,28,Berget som de underbetalda gruvarbetarna hade fått i uppgift att spränga var fullkomligt ogenomträngligt och de gav därför upp.,14,,0,,cor,1,no,181,199,,,,,,,,,,,,,0,72,72,72,,,,,,,,,,,,,,,,,,,,,,,,,,,,,,,,,,,,,,,,,,,,,,,,,,,,,,,,,,,,,,,,,,,,,,,,,,,,,,,,,,,,,,,,,,,,,1693.9103702827033,None,1694.4111203161392,None,1694.4111203161392,None,right,0,7.184197435357419,1694.4111203161392,None,,,,,,,,,,,,,1701.6120539049043,None,,,,,,,,,,,,,,,,,,,,,,,,,,,,,,,,,1682.9191211538937,None,1682.9191211538937,None,1683.419214647478,None,1693.4209696968528,1693.4209696968528,0.009887612051898031,None,1693.4209696968528,1693.4209696968528,1703.1125910359697,None,1703.1125910359697,None,None,0.008197992149689526,None,,NENA_032,001,2021_Mar_01_1036,test7,3.2.4,99.95739278471328,
150,119,Byborna byggde murar som fienden kunde inte riva.  ,6,,7,,inc,1,no,153,154,,,,,,,,,,,,,0,73,73,73,,,,,,,,,,,,,,,,,,,,,,,,,,,,,,,,,,,,,,,,,,,,,,,,,,,,,,,,,,,,,,,,,,,,,,,,,,,,,,,,,,,,,,,,,,,,,1708.6129121856293,None,1709.1136750483738,None,1709.1136750483738,None,left,0,10.697191119167655,1709.1136750483738,None,,,,,,,,,,,,,1719.8254925412002,None,,,,,,,,,,,,,,,,,,,,,,,,,,,,,,,,,1703.1225917383745,None,1703.1225917383745,None,1703.6226974198016,None,1708.123495242411,1708.123495242411,0.009885687655696529,None,1708.123495242411,1708.123495242411,1721.3257782178225,None,1721.3257782178225,None,None,0.007801566522175563,None,,NENA_032,001,2021_Mar_01_1036,test7,3.2.4,99.95739278471328,
150,99,Turismen orsakar nedskräpning som staden inte kan hantera.  ,6,,7,,cor,1,no,151,152,,,,,,,,,,,,,0,74,74,74,,,,,,,,,,,,,,,,,,,,,,,,,,,,,,,,,,,,,,,,,,,,,,,,,,,,,,,,,,,,,,,,,,,,,,,,,,,,,,,,,,,,,,,,,,,,,1726.8260676149448,None,1727.3268356094131,None,1727.3268356094131,None,left,1,3.179749193437601,1727.3268356094131,None,,,,,,,,,,,,,1730.5173091423894,None,,,,,,,,,,,,,,,,,,,,,,,,,,,,,,,,,1721.3357776372968,None,1721.3357776372968,None,1721.8358390576104,None,1726.3366375216856,1726.3366375216856,0.009881518130896438,None,1726.3366375216856,1726.3366375216856,1732.0176124593108,None,1732.0176124593108,None,None,0.008314738854096504,None,,NENA_032,001,2021_Mar_01_1036,test7,3.2.4,99.95739278471328,
170,48,Anställningen var ganska välbetalt och det fanns många sökande. ,4,,0,,inc,1,no,172,199,,,,,,,,,,,,,0,75,75,75,,,,,,,,,,,,,,,,,,,,,,,,,,,,,,,,,,,,,,,,,,,,,,,,,,,,,,,,,,,,,,,,,,,,,,,,,,,,,,,,,,,,,,,,,,,,,1738.018013311049,None,1738.518699518676,None,1738.518699518676,None,right,1,4.083596735069477,1738.518699518676,None,,,,,,,,,,,,,1742.6192104138063,None,,,,,,,,,,,,,,,,,,,,,,,,,,,,,,,,,1732.027626632489,None,1732.027626632489,None,1732.5277201260733,None,1737.5285915568393,1737.5285915568393,0.009881838863293524,None,1737.5285915568393,1737.5285915568393,1744.1196721726847,None,1744.1196721726847,None,None,0.008000100067874882,None,,NENA_032,001,2021_Mar_01_1036,test7,3.2.4,99.95739278471328,
160,46,Den ensamma nattvakten öppnade ett skåp bakom disken som de oaktsamma kollegorna på arbetsplatsen kunde inte hitta.,15,,16,,inc,1,no,163,164,,,,,,,,,,,,,0,76,76,76,,,,,,,,,,,,,,,,,,,,,,,,,,,,,,,,,,,,,,,,,,,,,,,,,,,,,,,,,,,,,,,,,,,,,,,,,,,,,,,,,,,,,,,,,,,,,1754.1208039742633,None,1754.6215488759763,None,1754.6215488759763,None,left,0,10.660246880794148,1754.6215488759763,None,,,,,,,,,,,,,1765.3033736911293,None,,,,,,,,,,,,,,,,,,,,,,,,,,,,,,,,,1744.1297014203,None,1744.1297014203,None,1744.629834043275,None,1753.6313687492802,1753.6313687492802,0.00987927300229785,None,1753.6313687492802,1753.6313687492802,1766.8036205590943,None,1766.8036205590943,None,None,0.008995654392492725,None,,NENA_032,001,2021_Mar_01_1036,test7,3.2.4,99.95739278471328,
180,45,Citronen som den här gången inte köpts i affären utan plockats från gården var otroligt surt men smakade ändå bra. ,16,,0,,inc,1,no,182,199,,,,,,,,,,,,,0,77,77,77,,,,,,,,,,,,,,,,,,,,,,,,,,,,,,,,,,,,,,,,,,,,,,,,,,,,,,,,,,,,,,,,,,,,,,,,,,,,,,,,,,,,,,,,,,,,,1778.3049908254407,None,1778.805746632066,None,1778.805746632066,None,right,1,4.923506532202737,1778.805746632066,None,,,,,,,,,,,,,1783.7463113333142,None,,,,,,,,,,,,,,,,,,,,,,,,,,,,,,,,,1766.8136209407667,None,1766.8136209407667,None,1767.3137352819767,None,1777.8155713163605,1777.8155713163605,0.009879593733785441,None,1777.8155713163605,1777.8155713163605,1785.2468410875272,None,1785.2468410875272,None,None,0.00786795819294639,None,,NENA_032,001,2021_Mar_01_1036,test7,3.2.4,99.95739278471328,
180,44,Bröllopet som för att vara en vuxenfest avslutades alldeles för tidigt var ändå jättelyckat enligt de flesta gästerna. ,14,,0,,cor,1,no,181,199,,,,,,,,,,,,,0,78,78,78,,,,,,,,,,,,,,,,,,,,,,,,,,,,,,,,,,,,,,,,,,,,,,,,,,,,,,,,,,,,,,,,,,,,,,,,,,,,,,,,,,,,,,,,,,,,,1795.7479922934344,None,1796.2488061526792,None,1796.2488061526792,None,right,0,7.856104553731711,1796.2488061526792,None,,,,,,,,,,,,,1804.1197356136145,None,,,,,,,,,,,,,,,,,,,,,,,,,,,,,,,,,1785.256869052212,None,1785.256869052212,None,1785.7569186054152,None,1795.258578557543,1795.258578557543,0.009882480328087695,None,1795.258578557543,1795.258578557543,1805.6203808316022,None,1805.6203808316022,None,None,0.007786171353473037,None,,NENA_032,001,2021_Mar_01_1036,test7,3.2.4,99.95739278471328,
180,36,Biobesöket som de alla hade sett fram emot så mycket den här veckan blev ganska tråkigt av någon anledning. ,16,,0,,cor,1,no,181,199,,,,,,,,,,,,,0,79,79,79,,,,,,,,,,,,,,,,,,,,,,,,,,,,,,,,,,,,,,,,,,,,,,,,,,,,,,,,,,,,,,,,,,,,,,,,,,,,,,,,,,,,,,,,,,,,,1816.6016275260508,None,1817.1023679375057,None,1817.1023679375057,None,right,0,23.665509783791094,1817.1023679375057,None,,,,,,,,,,,,,1840.7864513523855,None,,,,,,,,,,,,,,,,,,,,,,,,,,,,,,,,,1805.6303545924593,None,1805.6303545924593,None,1806.1304759897885,None,1816.1121413045676,1816.1121413045676,0.009879273001388356,None,1816.1121413045676,1816.1121413045676,1842.286729331423,None,1842.286729331423,None,None,0.007996572008778458,None,,NENA_032,001,2021_Mar_01_1036,test7,3.2.4,99.95739278471328,
150,31,Lakrits innehåller sötningsmedel som barnen fick inte äta.  ,6,,7,,inc,1,no,153,154,,,,,,,,,,,,,0,80,80,80,,,,,,,,,,,,,,,,,,,,,,,,,,,,,,,,,,,,,,,,,,,,,,,,,,,,,,,,,,,,,,,,,,,,,,,,,,,,,,,,,,,,,,,,,,,,,1847.7869978809185,None,1848.2877777424965,None,1848.2877777424965,None,right,1,12.271714165576668,1848.2877777424965,None,,,,,,,,,,,,,1860.569601723746,None,,,,,,,,,,,,,,,,,,,,,,,,,,,,,,,,,1842.2967172045192,None,1842.2967172045192,None,1842.7967757382385,None,1847.2976155768329,1847.2976155768329,0.009882480328087695,None,1847.2976155768329,1847.2976155768329,1862.0701564951096,None,1862.0701564951096,None,None,0.007785529887769371,None,,NENA_032,001,2021_Mar_01_1036,test7,3.2.4,99.95739278471328,
180,49,Ålen som tidigt rödlistades på grund av det nära förestående utrotningshotet är fortfarande vanlig som julmat.  ,14,,0,,cor,1,no,181,199,,,,,,,,,,,,,0,81,81,81,,,,,,,,,,,,,,,,,,,,,,,,,,,,,,,,,,,,,,,,,,,,,,,,,,,,,,,,,,,,,,,,,,,,,,,,,,,,,,,,,,,,,,,,,,,,,1871.5711418822066,None,1872.0718515033223,None,1872.0718515033223,None,right,0,13.774869694319023,1872.0718515033223,None,,,,,,,,,,,,,1885.8639936161362,None,,,,,,,,,,,,,,,,,,,,,,,,,,,,,,,,,1862.0801677816935,None,1862.0801677816935,None,1862.5802298434728,None,1871.0817287877808,1871.0817287877808,0.009878952269900765,None,1871.0817287877808,1871.0817287877808,1887.3645419728455,None,1887.3645419728455,None,None,0.008402298883993353,None,,NENA_032,001,2021_Mar_01_1036,test7,3.2.4,99.95739278471328,
160,6,Det svenska landslaget spelade en historisk match som de öldrickande gubbarna i restaurangen skulle inte glömma.,14,,15,,inc,1,no,163,164,,,,,,,,,,,,,0,82,82,82,,,,,,,,,,,,,,,,,,,,,,,,,,,,,,,,,,,,,,,,,,,,,,,,,,,,,,,,,,,,,,,,,,,,,,,,,,,,,,,,,,,,,,,,,,,,,1896.8655039464556,None,1897.3662860531622,None,1897.3662860531622,None,right,1,4.736259249531031,1897.3662860531622,None,,,,,,,,,,,,,1902.1168640936849,None,,,,,,,,,,,,,,,,,,,,,,,,,,,,,,,,,1887.374547806974,None,1887.374547806974,None,1887.874630395646,None,1896.3760950215546,1896.3760950215546,0.009880876665192773,None,1896.3760950215546,1896.3760950215546,1903.617356322171,None,1903.617356322171,None,None,0.00767744296535966,None,,NENA_032,001,2021_Mar_01_1036,test7,3.2.4,99.95739278471328,
170,49,Museet är väldigt populärt och har ett gott rykte. ,4,,0,,cor,1,no,173,199,,,,,,,,,,,,,0,83,83,83,,,,,,,,,,,,,,,,,,,,,,,,,,,,,,,,,,,,,,,,,,,,,,,,,,,,,,,,,,,,,,,,,,,,,,,,,,,,,,,,,,,,,,,,,,,,,1909.617740495808,None,1910.11848892558,None,1910.11848892558,None,right,0,4.159541429204182,1910.11848892558,None,,,,,,,,,,,,,1914.2890581074653,None,,,,,,,,,,,,,,,,,,,,,,,,,,,,,,,,,1903.6273708160816,None,1903.6273708160816,None,1904.1274655925963,None,1909.1283225903908,1909.1283225903908,0.009882159596600104,None,1909.1283225903908,1909.1283225903908,1915.7894714357053,None,1915.7894714357053,None,None,0.008499480894897715,None,,NENA_032,001,2021_Mar_01_1036,test7,3.2.4,99.95739278471328,
150,80,Dataviruset installerade programmet som användaren inte kunde upptäcka.  ,6,,7,,cor,1,no,151,152,,,,,,,,,,,,,0,84,84,84,,,,,,,,,,,,,,,,,,,,,,,,,,,,,,,,,,,,,,,,,,,,,,,,,,,,,,,,,,,,,,,,,,,,,,,,,,,,,,,,,,,,,,,,,,,,,1921.2897592291638,None,1921.7904566624356,None,1921.7904566624356,None,left,1,0.8473828692176539,1921.7904566624356,None,,,,,,,,,,,,,1922.6506207300454,None,,,,,,,,,,,,,,,,,,,,,,,,,,,,,,,,,1915.7994073501031,None,1915.7994073501031,None,1916.2994710155454,None,1920.8002787808691,1920.8002787808691,0.009882801061394275,None,1920.8002787808691,1920.8002787808691,1924.1509019164096,None,1924.1509019164096,None,None,0.0068714416711372905,None,,NENA_032,001,2021_Mar_01_1036,test7,3.2.4,99.95739278471328,
160,40,Den trevliga städerskan avlägsnade de nytvättade sängkläderna som gästerna i ett av hotellets finaste rum inte hade efterfrågat.,16,,17,,cor,1,no,161,162,,,,,,,,,,,,,0,85,85,85,,,,,,,,,,,,,,,,,,,,,,,,,,,,,,,,,,,,,,,,,,,,,,,,,,,,,,,,,,,,,,,,,,,,,,,,,,,,,,,,,,,,,,,,,,,,,1934.6520832711913,None,1935.1528246448443,None,1935.1528246448443,None,right,0,11.42835777476921,1935.1528246448443,None,,,,,,,,,,,,,1946.595125311872,None,,,,,,,,,,,,,,,,,,,,,,,,,,,,,,,,,1924.1609266737678,None,1924.1609266737678,None,1924.661015677094,None,1934.16262334979,1934.16262334979,0.009881518130896438,None,1934.16262334979,1934.16262334979,1948.0950658801012,None,1948.0950658801012,None,None,0.007995609810677706,None,,NENA_032,001,2021_Mar_01_1036,test7,3.2.4,99.95739278471328,
170,111,Villan är alltför stor för endast en person. ,4,,0,,cor,1,no,171,199,,,,,,,,,,,,,0,86,86,86,,,,,,,,,,,,,,,,,,,,,,,,,,,,,,,,,,,,,,,,,,,,,,,,,,,,,,,,,,,,,,,,,,,,,,,,,,,,,,,,,,,,,,,,,,,,,1953.59533122227,None,1954.0961389875938,None,1954.0961389875938,None,left,1,3.7647800848080806,1954.0961389875938,None,,,,,,,,,,,,,1957.8764377244524,None,,,,,,,,,,,,,,,,,,,,,,,,,,,,,,,,,1948.105054394663,None,1948.105054394663,None,1948.605095929549,None,1953.1059078643975,1953.1059078643975,0.009874141278487514,None,1953.1059078643975,1953.1059078643975,1959.3770216824933,None,1959.3770216824933,None,None,0.007622597671797848,None,,NENA_032,001,2021_Mar_01_1036,test7,3.2.4,99.95739278471328,
150,71,Gruvarbetarna andades damm som läkarna kunde inte identifiera.  ,6,,7,,inc,1,yes,153,154,,,,,,,,,,,,,0,87,87,87,,,,,,,,,,,,,,,,,,,,,,,,,,,,,,,,,,,,,,,,,,,,,,,,,,,,,,,,,,,,,,,,,,,,,,,,,,,,,,,,,,,,,,,,,,,,,1964.877299212505,None,1965.3780543776647,None,1965.3780543776647,None,right,1,1.786668167696007,1965.3780543776647,None,,,,,,,,,,,,,1967.178340214653,None,,,,,,,,,,,,,,,,,,,,,,,,,,,,,,,,,1959.3870194983028,None,1959.3870194983028,None,1959.8871107467585,None,1964.3878784204935,1964.3878784204935,0.009881518130896438,None,1964.3878784204935,1964.3878784204935,1968.6784058044923,None,1968.6784058044923,None,space,0.007909332713097683,None,117.10698456409682,NENA_032,001,2021_Mar_01_1036,test7,3.2.4,99.95739278471328,
170,38,Tältet var lagom rymligt för familjen.  ,4,,0,,cor,1,no,173,199,,,,,,,,,,,,,0,88,88,88,,,,,,,,,,,,,,,,,,,,,,,,,,,,,,,,,,,,,,,,,,,,,,,,,,,,,,,,,,,,,,,,,,,,,,,,,,,,,,,,,,,,,,,,,,,,,2090.2890549001377,None,2090.7897568236685,None,2090.7897568236685,None,right,0,0.8199358470437801,2090.7897568236685,None,,,,,,,,,,,,,2091.6198945366705,None,,,,,,,,,,,,,,,,,,,,,,,,,,,,,,,,,2085.7989310620324,None,2085.7989310620324,None,2086.2989822188993,None,2089.7996145434317,2089.7996145434317,0.009881518130896438,None,2089.7996145434317,2089.7996145434317,2093.1202010609195,None,2093.1202010609195,None,None,0.007588600004964974,None,,NENA_032,001,2021_Mar_01_1036,test7,3.2.4,99.95739278471328,
130,19,Fåglar äter ofta frön och ibland daggmaskar.,3,,4,,cor,1,no,131,132,,,,,,,,,,,,,0,89,89,89,,,,,,,,,,,,,,,,,,,,,,,,,,,,,,,,,,,,,,,,,,,,,,,,,,,,,,,,,,,,,,,,,,,,,,,,,,,,,,,,,,,,,,,,,,,,,2098.120383493683,None,2098.6211328856543,None,2098.6211328856543,None,left,1,4.508175637079148,2098.6211328856543,None,,,,,,,,,,,,,2103.142007613553,None,,,,,,,,,,,,,,,,,,,,,,,,,,,,,,,,,2093.1302117060377,None,2093.1302117060377,None,2093.6302811446694,None,2097.630963984603,2097.630963984603,0.009883121794700855,None,2097.630963984603,2097.630963984603,2104.642138055545,None,2104.642138055545,None,None,0.00817008840294875,None,,NENA_032,001,2021_Mar_01_1036,test7,3.2.4,99.95739278471328,
140,68,Kockar skär ofta grönsaker med vassa kniv.,3,,4,,inc,1,no,137,138,,,,,,,,,,,,,0,90,90,90,,,,,,,,,,,,,,,,,,,,,,,,,,,,,,,,,,,,,,,,,,,,,,,,,,,,,,,,,,,,,,,,,,,,,,,,,,,,,,,,,,,,,,,,,,,,,2109.642417349586,None,2110.14314813906,None,2110.14314813906,None,left,0,2.2819362376967547,2110.14314813906,None,,,,,,,,,,,,,2112.4432192455015,None,,,,,,,,,,,,,,,,,,,,,,,,,,,,,,,,,2104.6521560775154,None,2104.6521560775154,None,2105.152262079676,None,2109.1529798794745,2109.1529798794745,0.00988183886238403,None,2109.1529798794745,2109.1529798794745,2113.94379935475,None,2113.94379935475,None,None,0.008677166812958603,None,,NENA_032,001,2021_Mar_01_1036,test7,3.2.4,99.95739278471328,
150,81,Politiken kräver skatter men ekonomin inte kan klara av dem. ,6,,7,,inc,1,no,157,158,,,,,,,,,,,,,0,91,91,91,,,,,,,,,,,,,,,,,,,,,,,,,,,,,,,,,,,,,,,,,,,,,,,,,,,,,,,,,,,,,,,,,,,,,,,,,,,,,,,,,,,,,,,,,,,,,2120.444250721889,None,2120.94501550903,None,2120.94501550903,None,right,1,2.7597885216819122,2120.94501550903,None,,,,,,,,,,,,,2123.715818954084,None,,,,,,,,,,,,,,,,,,,,,,,,,,,,,,,,,2113.9537965290947,None,2113.9537965290947,None,2114.4538938714713,None,2119.9548446835825,2119.9548446835825,0.009880555931886192,None,2119.9548446835825,2119.9548446835825,2125.2157662577,None,2125.2157662577,None,None,0.00814410905331897,None,,NENA_032,001,2021_Mar_01_1036,test7,3.2.4,99.95739278471328,
140,20,Sälar äter gärna fisk från rent vattnet.,3,,4,,inc,1,no,131,132,,,,,,,,,,,,,0,92,92,92,,,,,,,,,,,,,,,,,,,,,,,,,,,,,,,,,,,,,,,,,,,,,,,,,,,,,,,,,,,,,,,,,,,,,,,,,,,,,,,,,,,,,,,,,,,,,2130.2159615197725,None,2130.716712194674,None,2130.716712194674,None,left,0,4.40373127602561,2130.716712194674,None,,,,,,,,,,,,,2135.1371536447577,None,,,,,,,,,,,,,,,,,,,,,,,,,,,,,,,,,2125.2257676015706,None,2125.2257676015706,None,2125.7258197206347,None,2129.726511861818,2129.726511861818,0.009884725457595778,None,2129.726511861818,2129.726511861818,2136.637717075905,None,2136.637717075905,None,None,0.0077329297237156425,None,,NENA_032,001,2021_Mar_01_1036,test7,3.2.4,99.95739278471328,
170,63,Strejken är särskilt viktig för facket.  ,4,,0,,cor,1,no,171,199,,,,,,,,,,,,,0,93,93,93,,,,,,,,,,,,,,,,,,,,,,,,,,,,,,,,,,,,,,,,,,,,,,,,,,,,,,,,,,,,,,,,,,,,,,,,,,,,,,,,,,,,,,,,,,,,,2141.1378364846923,None,2141.6386070450217,None,2141.6386070450217,None,left,1,2.0417824912656215,2141.6386070450217,None,,,,,,,,,,,,,2143.698907039153,None,,,,,,,,,,,,,,,,,,,,,,,,,,,,,,,,,2136.6477347771433,None,2136.6477347771433,None,2137.14782859146,None,2140.6484400683676,2140.6484400683676,0.009882480328087695,None,2140.6484400683676,2140.6484400683676,2145.199206507282,None,2145.199206507282,None,None,0.007958725548633083,None,,NENA_032,001,2021_Mar_01_1036,test7,3.2.4,99.95739278471328,
180,25,Pennan som hade använts flera gånger tidigare på de många lektionerna var återigen vässad och matematikboken låg på bordet.,14,,0,,cor,1,no,181,199,,,,,,,,,,,,,0,94,94,94,,,,,,,,,,,,,,,,,,,,,,,,,,,,,,,,,,,,,,,,,,,,,,,,,,,,,,,,,,,,,,,,,,,,,,,,,,,,,,,,,,,,,,,,,,,,,2156.2004544141,None,2156.701197712149,None,2156.701197712149,None,right,0,3.3146137688627277,2156.701197712149,None,,,,,,,,,,,,,2160.0315228934196,None,,,,,,,,,,,,,,,,,,,,,,,,,,,,,,,,,2145.2092440939477,None,2145.2092440939477,None,2145.709279855644,None,2155.7110461306647,2155.7110461306647,0.009884083991892112,None,2155.7110461306647,2155.7110461306647,2161.532023140223,None,2161.532023140223,None,None,0.008282024117761466,None,,NENA_032,001,2021_Mar_01_1036,test7,3.2.4,99.95739278471328,
140,4,Musiker läser ofta noter av välkända kompositör.,3,,4,,inc,1,no,131,132,,,,,,,,,,,,,0,95,95,95,,,,,,,,,,,,,,,,,,,,,,,,,,,,,,,,,,,,,,,,,,,,,,,,,,,,,,,,,,,,,,,,,,,,,,,,,,,,,,,,,,,,,,,,,,,,,2166.5322491926354,None,2167.0329591344835,None,2167.0329591344835,None,left,0,1.9025989292022132,2167.0329591344835,None,,,,,,,,,,,,,2168.953059485333,None,,,,,,,,,,,,,,,,,,,,,,,,,,,,,,,,,2161.542002995002,None,2161.542002995002,None,2162.0421166947463,None,2166.042850531181,2166.042850531181,0.009883763259495026,None,2166.042850531181,2166.042850531181,2170.4535895602785,None,2170.4535895602785,None,None,0.008728804779821075,None,,NENA_032,001,2021_Mar_01_1036,test7,3.2.4,99.95739278471328,
160,21,Praktikanten i blomsteraffären vattnade alla gamla orkidéer som den gamla och snart pensionerade ägaren inte ville bry sig om.,15,,16,,cor,1,no,161,162,,,,,,,,,,,,,0,96,96,96,,,,,,,,,,,,,,,,,,,,,,,,,,,,,,,,,,,,,,,,,,,,,,,,,,,,,,,,,,,,,,,,,,,,,,,,,,,,,,,,,,,,,,,,,,,,,2181.4548397122253,None,2181.955601933505,None,2181.955601933505,None,right,0,4.331639543906022,2181.955601933505,None,,,,,,,,,,,,,2186.296065475658,None,,,,,,,,,,,,,,,,,,,,,,,,,,,,,,,,,2170.463581923633,None,2170.463581923633,None,2170.9636747757513,None,2180.9653749798335,2180.9653749798335,0.009882480328087695,None,2180.9653749798335,2180.9653749798335,2187.7966016445243,None,2187.7966016445243,None,None,0.008041153854719596,None,,NENA_032,001,2021_Mar_01_1036,test7,3.2.4,99.95739278471328,
170,85,Mönstret var mycket smakfull i sammanhanget.  ,4,,0,,inc,1,no,174,199,,,,,,,,,,,,,0,97,97,97,,,,,,,,,,,,,,,,,,,,,,,,,,,,,,,,,,,,,,,,,,,,,,,,,,,,,,,,,,,,,,,,,,,,,,,,,,,,,,,,,,,,,,,,,,,,,2192.296710789865,None,2192.7974762184713,None,2192.7974762184713,None,left,0,3.505707598895242,2192.7974762184713,None,,,,,,,,,,,,,2196.3180019891843,None,,,,,,,,,,,,,,,,,,,,,,,,,,,,,,,,,2187.8065648212023,None,2187.8065648212023,None,2188.3066756343533,None,2191.807292242983,2191.807292242983,0.00988215959569061,None,2191.807292242983,2191.807292242983,2197.818340586703,None,2197.818340586703,None,None,0.00852513951031142,None,,NENA_032,001,2021_Mar_01_1036,test7,3.2.4,99.95739278471328,
170,73,Badkaret är helt fullt men kranen rinner fortfarande. ,4,,0,,cor,1,no,173,199,,,,,,,,,,,,,0,98,98,98,,,,,,,,,,,,,,,,,,,,,,,,,,,,,,,,,,,,,,,,,,,,,,,,,,,,,,,,,,,,,,,,,,,,,,,,,,,,,,,,,,,,,,,,,,,,,2203.318605287407,None,2203.819326454899,None,2203.819326454899,None,right,0,4.7393437359778545,2203.819326454899,None,,,,,,,,,,,,,2208.5699327199,None,,,,,,,,,,,,,,,,,,,,,,,,,,,,,,,,,2197.828331987859,None,2197.828331987859,None,2198.3284126521357,None,2202.82921464427,2202.82921464427,0.009881838864203019,None,2202.82921464427,2202.82921464427,2210.0704499655367,None,2210.0704499655367,None,None,0.008153089570441807,None,,NENA_032,001,2021_Mar_01_1036,test7,3.2.4,99.95739278471328,
160,50,De giriga inbrottstjuvarna stal en mängd värdelös båtutrustning som den fullkomligt ovetande ägaren till den slitna båten inte hade tänkt spara ändå.,18,,19,,cor,1,no,161,162,,,,,,,,,,,,,0,99,99,99,,,,,,,,,,,,,,,,,,,,,,,,,,,,,,,,,,,,,,,,,,,,,,,,,,,,,,,,,,,,,,,,,,,,,,,,,,,,,,,,,,,,,,,,,,,,,2222.571961033542,None,2223.072678993707,None,2223.072678993707,None,right,0,3.1975068805177216,2223.072678993707,None,,,,,,,,,,,,,2226.2832358466267,None,,,,,,,,,,,,,,,,,,,,,,,,,,,,,,,,,2210.0803448261486,None,2210.0803448261486,None,2210.5804521112386,None,2222.0825517879084,2222.0825517879084,0.009881197398499353,None,2222.0825517879084,2222.0825517879084,2227.7834791865316,None,2227.7834791865316,None,None,0.007644407496627537,None,,NENA_032,001,2021_Mar_01_1036,test7,3.2.4,99.95739278471328,
150,86,Sjön lagrar vatten men bönderna inte får använda det.  ,6,,7,,inc,1,no,157,158,,,,,,,,,,,,,0,100,100,100,,,,,,,,,,,,,,,,,,,,,,,,,,,,,,,,,,,,,,,,,,,,,,,,,,,,,,,,,,,,,,,,,,,,,,,,,,,,,,,,,,,,,,,,,,,,,2233.783904734688,None,2234.284648994936,None,2234.284648994936,None,right,1,3.865450063361095,2234.284648994936,None,,,,,,,,,,,,,2238.1652424530794,None,,,,,,,,,,,,,,,,,,,,,,,,,,,,,,,,,2227.793526074446,None,2227.793526074446,None,2228.293617643634,None,2233.2944736792306,2233.2944736792306,0.009881518129986944,None,2233.2944736792306,2233.2944736792306,2239.6655313370284,None,2239.6655313370284,None,None,0.008323077905515675,None,,NENA_032,001,2021_Mar_01_1036,test7,3.2.4,99.95739278471328,
150,43,Etanol innehåller energi som kroppen inte kan absorbera.  ,6,,7,,cor,1,no,151,152,,,,,,,,,,,,,0,101,101,101,,,,,,,,,,,,,,,,,,,,,,,,,,,,,,,,,,,,,,,,,,,,,,,,,,,,,,,,,,,,,,,,,,,,,,,,,,,,,,,,,,,,,,,,,,,,,2245.1658678818585,None,2245.666586804222,None,2245.666586804222,None,right,0,4.723121075634481,2245.666586804222,None,,,,,,,,,,,,,2250.407156059875,None,,,,,,,,,,,,,,,,,,,,,,,,,,,,,,,,,2239.675590412786,None,2239.675590412786,None,2240.1756563233575,None,2244.6764705033356,2244.6764705033356,0.009884404725198692,None,2244.6764705033356,2244.6764705033356,2251.907707944645,None,2251.907707944645,None,None,0.008134166339914373,None,,NENA_032,001,2021_Mar_01_1036,test7,3.2.4,99.95739278471328,
140,9,Meteorologer förutspår ofta väder utifrån datormodell.,3,,4,,inc,1,no,131,132,,,,,,,,,,,,,0,102,102,102,,,,,,,,,,,,,,,,,,,,,,,,,,,,,,,,,,,,,,,,,,,,,,,,,,,,,,,,,,,,,,,,,,,,,,,,,,,,,,,,,,,,,,,,,,,,,2256.4077952801617,None,2256.9085757832054,None,2256.9085757832054,None,right,1,2.336791794117744,2256.9085757832054,None,,,,,,,,,,,,,2259.258892875596,None,,,,,,,,,,,,,,,,,,,,,,,,,,,,,,,,,2251.917748738638,None,2251.917748738638,None,2252.4177610868473,None,2255.9183950150436,2255.9183950150436,0.009881197397589858,None,2255.9183950150436,2255.9183950150436,2260.7592465475527,None,2260.7592465475527,None,None,0.008374074405764986,None,,NENA_032,001,2021_Mar_01_1036,test7,3.2.4,99.95739278471328,
180,8,Bordet som visserligen är alldeles bedårande med sina röda vackra blommor på benen är för låg för de vuxna. ,16,,0,,inc,1,no,182,199,,,,,,,,,,,,,0,103,103,103,,,,,,,,,,,,,,,,,,,,,,,,,,,,,,,,,,,,,,,,,,,,,,,,,,,,,,,,,,,,,,,,,,,,,,,,,,,,,,,,,,,,,,,,,,,,,2271.7504821414423,None,2272.2512151760448,None,2272.2512151760448,None,right,1,2.977787656345754,2272.2512151760448,None,,,,,,,,,,,,,2275.241711545191,None,,,,,,,,,,,,,,,,,,,,,,,,,,,,,,,,,2260.769241476769,None,2260.769241476769,None,2261.2693179715197,None,2271.261030238359,2271.261030238359,0.00987895226899127,None,2271.261030238359,2271.261030238359,2276.74201101332,None,2276.74201101332,None,None,0.007646011160431954,None,,NENA_032,001,2021_Mar_01_1036,test7,3.2.4,99.95739278471328,
150,105,Säljaren gav en ursäkt men pojken inte kunde godta den.  ,6,,7,,inc,1,no,157,158,,,,,,,,,,,,,0,104,104,104,,,,,,,,,,,,,,,,,,,,,,,,,,,,,,,,,,,,,,,,,,,,,,,,,,,,,,,,,,,,,,,,,,,,,,,,,,,,,,,,,,,,,,,,,,,,,2283.242465587786,None,2283.7432287712627,None,2283.7432287712627,None,right,1,2.189422812626617,2283.7432287712627,None,,,,,,,,,,,,,2285.9437226354858,None,,,,,,,,,,,,,,,,,,,,,,,,,,,,,,,,,2276.7520158852494,None,2276.7520158852494,None,2277.2521212459433,None,2282.7530441543095,2282.7530441543095,0.009879914467092021,None,2282.7530441543095,2282.7530441543095,2287.4438386445063,None,2287.4438386445063,None,None,0.008140580994222546,None,,NENA_032,001,2021_Mar_01_1036,test7,3.2.4,99.95739278471328,
140,52,Skådespelare spelar ofta roller skriven för dem.,3,,4,,inc,1,no,135,136,,,,,,,,,,,,,0,105,105,105,,,,,,,,,,,,,,,,,,,,,,,,,,,,,,,,,,,,,,,,,,,,,,,,,,,,,,,,,,,,,,,,,,,,,,,,,,,,,,,,,,,,,,,,,,,,,2292.4440682249788,None,2292.944829804792,None,2292.944829804792,None,right,1,2.3316828428205554,2292.944829804792,None,,,,,,,,,,,,,2295.29492495015,None,,,,,,,,,,,,,,,,,,,,,,,,,,,,,,,,,2287.4538746275084,None,2287.4538746275084,None,2287.9537727948746,None,2291.954641018313,2291.954641018313,0.009876065675598511,None,2291.954641018313,2291.954641018313,2296.7954700995324,None,2296.7954700995324,None,None,0.008615265401203942,None,,NENA_032,001,2021_Mar_01_1036,test7,3.2.4,99.95739278471328,
170,41,Experimentet var för enkelt för forskningsfrågan.  ,4,,0,,cor,1,no,173,199,,,,,,,,,,,,,0,106,106,106,,,,,,,,,,,,,,,,,,,,,,,,,,,,,,,,,,,,,,,,,,,,,,,,,,,,,,,,,,,,,,,,,,,,,,,,,,,,,,,,,,,,,,,,,,,,,2301.295603941291,None,2301.7963546161936,None,2301.7963546161936,None,left,1,3.2559097406847286,2301.7963546161936,None,,,,,,,,,,,,,2305.0666254845864,None,,,,,,,,,,,,,,,,,,,,,,,,,,,,,,,,,2296.805490687365,None,2296.805490687365,None,2297.3055732760376,None,2300.8061270210565,2300.8061270210565,0.009872537614683097,None,2300.8061270210565,2300.8061270210565,2306.5671895571995,None,2306.5671895571995,None,None,0.007889768017776078,None,,NENA_032,001,2021_Mar_01_1036,test7,3.2.4,99.95739278471328,
170,28,Vinden är väldigt ovanlig för årstiden.  ,4,,0,,cor,1,no,171,199,,,,,,,,,,,,,0,107,107,107,,,,,,,,,,,,,,,,,,,,,,,,,,,,,,,,,,,,,,,,,,,,,,,,,,,,,,,,,,,,,,,,,,,,,,,,,,,,,,,,,,,,,,,,,,,,,2311.0672858732314,None,2311.5680464908473,None,2311.5680464908473,None,left,1,5.227880588647167,2311.5680464908473,None,,,,,,,,,,,,,2316.808898793115,None,,,,,,,,,,,,,,,,,,,,,,,,,,,,,,,,,2306.577194429129,None,2306.577194429129,None,2307.077234360351,None,2310.5778641190227,2310.5778641190227,0.00988248032899719,None,2310.5778641190227,2310.5778641190227,2318.3092037136994,None,2318.3092037136994,None,None,0.008684543666277023,None,,NENA_032,001,2021_Mar_01_1036,test7,3.2.4,99.95739278471328,
