trig_exp,trig_item,sentence,trig_w1,trig1,trig_w2,trig2,gram,task,paus,trig_1,trig_2,prac_trials.thisRepN,prac_trials.thisTrialN,prac_trials.thisN,prac_trials.thisIndex,trials_2.thisRepN,trials_2.thisTrialN,trials_2.thisN,trials_2.thisIndex,trials.thisRepN,trials.thisTrialN,trials.thisN,trials.thisIndex,exp_trials.thisRepN,exp_trials.thisTrialN,exp_trials.thisN,exp_trials.thisIndex,grating_1.started,grating_1.stopped,text_1.started,text_1.stopped,key_resp_1.keys,key_resp_1.rt,key_resp_1.started,key_resp_1.stopped,grating_2.started,grating_2.stopped,text_2.started,text_2.stopped,key_resp_2.keys,key_resp_2.rt,key_resp_2.started,key_resp_2.stopped,grating_3.started,grating_3.stopped,text_3.started,text_3.stopped,key_resp_3.keys,key_resp_3.rt,key_resp_3.started,key_resp_3.stopped,grating_4.started,grating_4.stopped,text_4.started,text_4.stopped,key_resp_4.keys,key_resp_4.rt,key_resp_4.started,key_resp_4.stopped,grating_5.started,grating_5.stopped,text_5.started,text_5.stopped,key_resp_5.keys,key_resp_5.rt,key_resp_5.started,key_resp_5.stopped,grating_6.started,grating_6.stopped,text_6.started,text_6.stopped,key_resp_6.keys,key_resp_6.rt,key_resp_6.started,key_resp_6.stopped,grating_7.started,grating_7.stopped,text_7.started,text_7.stopped,key_resp_7.keys,key_resp_7.rt,key_resp_7.started,key_resp_7.stopped,grating_8.started,grating_8.stopped,text_8.started,text_8.stopped,key_resp_8.keys,key_resp_8.rt,key_resp_8.started,key_resp_8.stopped,grating_9.started,grating_9.stopped,text_9.started,text_9.stopped,key_resp_9.keys,key_resp_9.rt,key_resp_9.started,key_resp_9.stopped,grating.started,grating.stopped,text.started,text.stopped,key_resp.keys,key_resp.rt,key_resp.started,key_resp.stopped,grating_14.started,grating_14.stopped,text_fix_4.started,text_fix_4.stopped,grating_16.started,grating_16.stopped,grating_40.started,grating_40.stopped,ISI_4.started,ISI_4.stopped,text_19.started,text_19.stopped,grating_24.started,grating_24.stopped,grating_35.started,grating_35.stopped,prompt.started,prompt.stopped,Button_Press.keys,Button_Press.corr,Button_Press.rt,Button_Press.started,Button_Press.stopped,grating_33.started,grating_33.stopped,grating_34.started,grating_34.stopped,Correct_Incorrect.started,Correct_Incorrect.stopped,Continue_text.started,Continue_text.stopped,Press_Bar.keys,Press_Bar.rt,Press_Bar.started,Press_Bar.stopped,grating_26.started,grating_26.stopped,grating_27.started,grating_27.stopped,text_10.started,text_10.stopped,key_resp_11.keys,key_resp_11.rt,key_resp_11.started,key_resp_11.stopped,grating_28.started,grating_28.stopped,text_11.started,text_11.stopped,key_resp_12.keys,key_resp_12.rt,key_resp_12.started,key_resp_12.stopped,grating_29.started,grating_29.stopped,text_12.started,text_12.stopped,key_resp_13.keys,key_resp_13.rt,key_resp_13.started,key_resp_13.stopped,grating_36.started,grating_36.stopped,text_14.started,text_14.stopped,key_resp_14.keys,key_resp_14.rt,key_resp_14.started,key_resp_14.stopped,grating_10.started,grating_10.stopped,text_fix.started,text_fix.stopped,grating_11.started,grating_11.stopped,grating_37.started,grating_37.stopped,ISI_2.started,ISI_2.stopped,text_15.started,text_15.stopped,grating_38.started,grating_38.stopped,text_fix_3.started,text_fix_3.stopped,key_resp_16.keys,key_resp_16.started,key_resp_16.stopped,key_resp_16.rt,participant,session,date,expName,psychopyVersion,frameRate,
,,,,,,,,,,,,,,,,,,,,,,,,,,,,11.108308620569005,None,11.108308620569005,None,space,123.18606803082412,11.108308620569005,None,,,,,,,,,,,,,,,,,,,,,,,,,,,,,,,,,,,,,,,,,,,,,,,,,,,,,,,,,,,,,,,,,,,,,,,,,,,,,,,,,,,,,,,,,,,,,,,,,,,,,,,,,,,,,,,,,,,,,,,,,,,,,,,,,,,,,,,,,,,,,,,,,,,,,,,,,,,,,,,,,,NENA_034,001,2021_Mar_03_1028,test7,3.2.4,100.16841334204562,
,,,,,,,,,,,,,,,,,,,,,,,,,,,,,,,,,,,,134.31157776165537,None,134.31157776165537,None,space,7.070602491097816,134.31157776165537,None,,,,,,,,,,,,,,,,,,,,,,,,,,,,,,,,,,,,,,,,,,,,,,,,,,,,,,,,,,,,,,,,,,,,,,,,,,,,,,,,,,,,,,,,,,,,,,,,,,,,,,,,,,,,,,,,,,,,,,,,,,,,,,,,,,,,,,,,,,,,,,,,,,,,,,,,,,NENA_034,001,2021_Mar_03_1028,test7,3.2.4,100.16841334204562,
,,,,,,,,,,,,,,,,,,,,,,,,,,,,,,,,,,,,,,,,,,,,141.39297625072913,None,141.39297625072913,None,space,8.797387086241542,141.39297625072913,None,,,,,,,,,,,,,,,,,,,,,,,,,,,,,,,,,,,,,,,,,,,,,,,,,,,,,,,,,,,,,,,,,,,,,,,,,,,,,,,,,,,,,,,,,,,,,,,,,,,,,,,,,,,,,,,,,,,,,,,,,,,,,,,,,,,,,,,,,,,,,,,,,,NENA_034,001,2021_Mar_03_1028,test7,3.2.4,100.16841334204562,
,,,,,,,,,,,,,,,,,,,,,,,,,,,,,,,,,,,,,,,,,,,,,,,,,,,,150.20435355193467,None,150.20435355193467,None,space,10.369699104054234,150.20435355193467,None,,,,,,,,,,,,,,,,,,,,,,,,,,,,,,,,,,,,,,,,,,,,,,,,,,,,,,,,,,,,,,,,,,,,,,,,,,,,,,,,,,,,,,,,,,,,,,,,,,,,,,,,,,,,,,,,,,,,,,,,,,,,,,,,,,,,,,,,,,NENA_034,001,2021_Mar_03_1028,test7,3.2.4,100.16841334204562,
,,,,,,,,,,,,,,,,,,,,,,,,,,,,,,,,,,,,,,,,,,,,,,,,,,,,,,,,,,,,160.58652322037642,None,160.58652322037642,None,space,11.427510614781568,160.58652322037642,None,,,,,,,,,,,,,,,,,,,,,,,,,,,,,,,,,,,,,,,,,,,,,,,,,,,,,,,,,,,,,,,,,,,,,,,,,,,,,,,,,,,,,,,,,,,,,,,,,,,,,,,,,,,,,,,,,,,,,,,,,,,,,,,,,,NENA_034,001,2021_Mar_03_1028,test7,3.2.4,100.16841334204562,
,,,,,,,,,,,,,,,,,,,,,,,,,,,,,,,,,,,,,,,,,,,,,,,,,,,,,,,,,,,,,,,,,,,,172.02866744798166,None,172.02866744798166,None,space,11.225043636230566,172.02866744798166,None,,,,,,,,,,,,,,,,,,,,,,,,,,,,,,,,,,,,,,,,,,,,,,,,,,,,,,,,,,,,,,,,,,,,,,,,,,,,,,,,,,,,,,,,,,,,,,,,,,,,,,,,,,,,,,,,,,,,,,,,,,NENA_034,001,2021_Mar_03_1028,test7,3.2.4,100.16841334204562,
,,,,,,,,,,,,,,,,,,,,,,,,,,,,,,,,,,,,,,,,,,,,,,,,,,,,,,,,,,,,,,,,,,,,,,,,,,,,183.27076529705664,None,183.27076529705664,None,space,4.9348619003908425,183.27076529705664,None,,,,,,,,,,,,,,,,,,,,,,,,,,,,,,,,,,,,,,,,,,,,,,,,,,,,,,,,,,,,,,,,,,,,,,,,,,,,,,,,,,,,,,,,,,,,,,,,,,,,,,,,,,,,,,,,,,NENA_034,001,2021_Mar_03_1028,test7,3.2.4,100.16841334204562,
,,,,,,,,,,,,,,,,,,,,,,,,,,,,,,,,,,,,,,,,,,,,,,,,,,,,,,,,,,,,,,,,,,,,,,,,,,,,,,,,,,,,188.22166339194473,None,188.22166339194473,None,space,7.336008277573001,188.22166339194473,None,,,,,,,,,,,,,,,,,,,,,,,,,,,,,,,,,,,,,,,,,,,,,,,,,,,,,,,,,,,,,,,,,,,,,,,,,,,,,,,,,,,,,,,,,,,,,,,,,,,,,,,,,,NENA_034,001,2021_Mar_03_1028,test7,3.2.4,100.16841334204562,
,,,,,,,,,,,,,,,,,,,,,,,,,,,,,,,,,,,,,,,,,,,,,,,,,,,,,,,,,,,,,,,,,,,,,,,,,,,,,,,,,,,,,,,,,,,,195.5730384864819,None,195.5730384864819,None,space,2.096506150768164,195.5730384864819,None,,,,,,,,,,,,,,,,,,,,,,,,,,,,,,,,,,,,,,,,,,,,,,,,,,,,,,,,,,,,,,,,,,,,,,,,,,,,,,,,,,,,,,,,,,,,,,,,,,NENA_034,001,2021_Mar_03_1028,test7,3.2.4,100.16841334204562,
,,,,,,,,,,,,,,,,,,,,,,,,,,,,,,,,,,,,,,,,,,,,,,,,,,,,,,,,,,,,,,,,,,,,,,,,,,,,,,,,,,,,,,,,,,,,,,,,,,,,197.6834264432032,None,197.6834264432032,None,space,3.2981170830153133,197.6834264432032,None,,,,,,,,,,,,,,,,,,,,,,,,,,,,,,,,,,,,,,,,,,,,,,,,,,,,,,,,,,,,,,,,,,,,,,,,,,,,,,,,,,,,,,,,,,NENA_034,001,2021_Mar_03_1028,test7,3.2.4,100.16841334204562,
199,1,Meningarna presenteras ord för ord.,99,99,99,99,cor,1,no,,,0,0,0,0,0,0,0,0,0,0,0,0,,,,,,,,,,,,,,,,,,,,,,,,,,,,,,,,,,,,,,,,,,,,,,,,,,,,,,,,,,,,,,,,,,,,,,,,,,,,,,,,,,,,,201.0536794595714,None,201.0536794595714,None,201.5040717526531,None,204.5147336826799,204.5147336826799,0.009880711599180358,None,204.5147336826799,204.5147336826799,205.00411184474297,None,205.5146897417494,None,205.5146897417494,None,left,1,2.3467144692672264,205.5146897417494,None,207.88529460629888,None,208.21514698401643,None,208.21514698401643,None,208.21514698401643,None,space,3.478264955472241,208.21514698401643,None,,,,,,,,,,,,,,,,,,,,,,,,,,,,,,,,,,,,,,,,,,,,,,,,,,,,,,,NENA_034,001,2021_Mar_03_1028,test7,3.2.4,100.16841334204562,
199,1,Meningarna presenteras ord för ord.,99,99,99,99,cor,1,no,,,0,0,0,0,0,0,0,0,,,,,,,,,,,,,,,,,,,,,,,,,,,,,,,,,,,,,,,,,,,,,,,,,,,,,,,,,,,,,,,,,,,,,,,,,,,,,,,,,,,,,,,,,,,,,,,,,,,,,,,,,,,,,,,,,,,,,,,,,,,,,,,,,,,,,,,,,,,,,,,,,,,,,,,,,,,,,,,,,,,,,,,,,,,,,,,,,,NENA_034,001,2021_Mar_03_1028,test7,3.2.4,100.16841334204562,
199,1,Meningarna presenteras ord för ord.,99,99,99,99,cor,1,no,,,0,0,0,0,,,,,,,,,,,,,,,,,,,,,,,,,,,,,,,,,,,,,,,,,,,,,,,,,,,,,,,,,,,,,,,,,,,,,,,,,,,,,,,,,,,,,,,,,,,,,,,,,,,,,,,,,,,,,,,,,,,,,,,,,,,,,,,,211.71603285883566,None,,,,,,,,,,,,,,,,,,,,,,,,,,,,,,,,,,,,,,,,,,,,,,,,,,,,,NENA_034,001,2021_Mar_03_1028,test7,3.2.4,100.16841334204562,
199,2,Läs meningen noggrant och ange ditt svar när du ser frågetecknet.,99,99,99,99,cor,1,no,,,0,1,1,1,0,0,0,0,0,0,0,0,,,,,,,,,,,,,,,,,,,,,,,,,,,,,,,,,,,,,,,,,,,,,,,,,,,,,,,,,,,,,,,,,,,,,,,,,,,,,,,,,,,,,213.21630580578358,None,213.21630580578358,None,213.71637861301906,None,219.7175236431076,219.7175236431076,0.00988391896680696,None,219.7175236431076,219.7175236431076,220.20696595251457,None,220.7076850442395,None,220.7076850442395,None,left,1,0.32157223856893324,220.7076850442395,None,221.0474311875405,None,221.34789862923571,None,221.34789862923571,None,221.34789862923571,None,space,2.0253481436720904,221.34789862923571,None,,,,,,,,,,,,,,,,,,,,,,,,,,,,,,,,,,,,,,,,,,,,,,,,,,,,,,,NENA_034,001,2021_Mar_03_1028,test7,3.2.4,100.16841334204562,
199,2,Läs meningen noggrant och ange ditt svar när du ser frågetecknet.,99,99,99,99,cor,1,no,,,0,1,1,1,0,0,0,0,,,,,,,,,,,,,,,,,,,,,,,,,,,,,,,,,,,,,,,,,,,,,,,,,,,,,,,,,,,,,,,,,,,,,,,,,,,,,,,,,,,,,,,,,,,,,,,,,,,,,,,,,,,,,,,,,,,,,,,,,,,,,,,,,,,,,,,,,,,,,,,,,,,,,,,,,,,,,,,,,,,,,,,,,,,,,,,,,,NENA_034,001,2021_Mar_03_1028,test7,3.2.4,100.16841334204562,
199,2,Läs meningen noggrant och ange ditt svar när du ser frågetecknet.,99,99,99,99,cor,1,no,,,0,1,1,1,,,,,,,,,,,,,,,,,,,,,,,,,,,,,,,,,,,,,,,,,,,,,,,,,,,,,,,,,,,,,,,,,,,,,,,,,,,,,,,,,,,,,,,,,,,,,,,,,,,,,,,,,,,,,,,,,,,,,,,,,,,,,,,,223.38865624785512,None,,,,,,,,,,,,,,,,,,,,,,,,,,,,,,,,,,,,,,,,,,,,,,,,,,,,,NENA_034,001,2021_Mar_03_1028,test7,3.2.4,100.16841334204562,
199,3,I den här meningen finns det en misstag.,99,99,99,99,inc,1,no,,,0,2,2,2,0,0,0,0,0,0,0,0,,,,,,,,,,,,,,,,,,,,,,,,,,,,,,,,,,,,,,,,,,,,,,,,,,,,,,,,,,,,,,,,,,,,,,,,,,,,,,,,,,,,,224.8881982358198,None,224.8881982358198,None,225.38856676231035,None,229.8894038851481,229.8894038851481,0.00989354106832252,None,229.8894038851481,229.8894038851481,230.37884138350455,None,230.87960473689645,None,230.87960473689645,None,right,1,0.8696237309250137,230.87960473689645,None,231.76976299480884,None,232.06982823265753,None,232.06982823265753,None,232.06982823265753,None,space,2.0072236323944708,232.06982823265753,None,,,,,,,,,,,,,,,,,,,,,,,,,,,,,,,,,,,,,,,,,,,,,,,,,,,,,,,NENA_034,001,2021_Mar_03_1028,test7,3.2.4,100.16841334204562,
199,3,I den här meningen finns det en misstag.,99,99,99,99,inc,1,no,,,0,2,2,2,0,0,0,0,,,,,,,,,,,,,,,,,,,,,,,,,,,,,,,,,,,,,,,,,,,,,,,,,,,,,,,,,,,,,,,,,,,,,,,,,,,,,,,,,,,,,,,,,,,,,,,,,,,,,,,,,,,,,,,,,,,,,,,,,,,,,,,,,,,,,,,,,,,,,,,,,,,,,,,,,,,,,,,,,,,,,,,,,,,,,,,,,,NENA_034,001,2021_Mar_03_1028,test7,3.2.4,100.16841334204562,
199,3,I den här meningen finns det en misstag.,99,99,99,99,inc,1,no,,,0,2,2,2,,,,,,,,,,,,,,,,,,,,,,,,,,,,,,,,,,,,,,,,,,,,,,,,,,,,,,,,,,,,,,,,,,,,,,,,,,,,,,,,,,,,,,,,,,,,,,,,,,,,,,,,,,,,,,,,,,,,,,,,,,,,,,,,234.10018403872982,None,,,,,,,,,,,,,,,,,,,,,,,,,,,,,,,,,,,,,,,,,,,,,,,,,,,,,NENA_034,001,2021_Mar_03_1028,test7,3.2.4,100.16841334204562,
199,4,I det här meningen finns det ett till misstag.,99,99,99,99,inc,1,no,,,0,3,3,3,0,0,0,0,0,0,0,0,,,,,,,,,,,,,,,,,,,,,,,,,,,,,,,,,,,,,,,,,,,,,,,,,,,,,,,,,,,,,,,,,,,,,,,,,,,,,,,,,,,,,235.60041625211443,None,235.60041625211443,None,236.10043228895074,None,241.10151541685218,241.10151541685218,0.009891937384963967,None,241.10151541685218,241.10151541685218,241.5909391235291,None,242.0916485931525,None,242.0916485931525,None,right,1,1.4332421799576878,242.0916485931525,None,243.54170603709917,None,243.84187808027536,None,243.84187808027536,None,243.84187808027536,None,space,2.19519844301567,243.84187808027536,None,,,,,,,,,,,,,,,,,,,,,,,,,,,,,,,,,,,,,,,,,,,,,,,,,,,,,,,NENA_034,001,2021_Mar_03_1028,test7,3.2.4,100.16841334204562,
199,4,I det här meningen finns det ett till misstag.,99,99,99,99,inc,1,no,,,0,3,3,3,0,0,0,0,,,,,,,,,,,,,,,,,,,,,,,,,,,,,,,,,,,,,,,,,,,,,,,,,,,,,,,,,,,,,,,,,,,,,,,,,,,,,,,,,,,,,,,,,,,,,,,,,,,,,,,,,,,,,,,,,,,,,,,,,,,,,,,,,,,,,,,,,,,,,,,,,,,,,,,,,,,,,,,,,,,,,,,,,,,,,,,,,,NENA_034,001,2021_Mar_03_1028,test7,3.2.4,100.16841334204562,
199,4,I det här meningen finns det ett till misstag.,99,99,99,99,inc,1,no,,,0,3,3,3,,,,,,,,,,,,,,,,,,,,,,,,,,,,,,,,,,,,,,,,,,,,,,,,,,,,,,,,,,,,,,,,,,,,,,,,,,,,,,,,,,,,,,,,,,,,,,,,,,,,,,,,,,,,,,,,,,,,,,,,,,,,,,,,246.0526861379517,None,,,,,,,,,,,,,,,,,,,,,,,,,,,,,,,,,,,,,,,,,,,,,,,,,,,,,NENA_034,001,2021_Mar_03_1028,test7,3.2.4,100.16841334204562,
199,5,Ibland kan meningarna låta lite märkliga men ändå vara grammatiskt korrekta.,99,99,99,99,cor,1,no,,,0,4,4,4,0,0,0,0,0,0,0,0,,,,,,,,,,,,,,,,,,,,,,,,,,,,,,,,,,,,,,,,,,,,,,,,,,,,,,,,,,,,,,,,,,,,,,,,,,,,,,,,,,,,,247.55269447710634,None,247.55269447710634,None,248.05278139675738,None,254.05392931347615,254.05392931347615,0.009887126333069318,None,254.05392931347615,254.05392931347615,254.5432940045971,None,255.0440826961899,None,255.0440826961899,None,right,0,0.04078071166350128,255.0440826961899,None,255.10410536586141,None,255.42408995766937,None,255.42408995766937,None,255.42408995766937,None,space,1.844623907330515,255.42408995766937,None,,,,,,,,,,,,,,,,,,,,,,,,,,,,,,,,,,,,,,,,,,,,,,,,,,,,,,,NENA_034,001,2021_Mar_03_1028,test7,3.2.4,100.16841334204562,
199,5,Ibland kan meningarna låta lite märkliga men ändå vara grammatiskt korrekta.,99,99,99,99,cor,1,no,,,0,4,4,4,0,0,0,0,,,,,,,,,,,,,,,,,,,,,,,,,,,,,,,,,,,,,,,,,,,,,,,,,,,,,,,,,,,,,,,,,,,,,,,,,,,,,,,,,,,,,,,,,,,,,,,,,,,,,,,,,,,,,,,,,,,,,,,,,,,,,,,,,,,,,,,,,,,,,,,,,,,,,,,,,,,,,,,,,,,,,,,,,,,,,,,,,,NENA_034,001,2021_Mar_03_1028,test7,3.2.4,100.16841334204562,
199,5,Ibland kan meningarna låta lite märkliga men ändå vara grammatiskt korrekta.,99,99,99,99,cor,1,no,,,0,4,4,4,,,,,,,,,,,,,,,,,,,,,,,,,,,,,,,,,,,,,,,,,,,,,,,,,,,,,,,,,,,,,,,,,,,,,,,,,,,,,,,,,,,,,,,,,,,,,,,,,,,,,,,,,,,,,,,,,,,,,,,,,,,,,,,,257.2851689416525,None,,,,,,,,,,,,,,,,,,,,,,,,,,,,,,,,,,,,,,,,,,,,,,,,,,,,,NENA_034,001,2021_Mar_03_1028,test7,3.2.4,100.16841334204562,
199,6,De gröna idéerna missade bussen i morse.,99,99,99,99,cor,1,no,,,0,5,5,5,0,0,0,0,0,0,0,0,,,,,,,,,,,,,,,,,,,,,,,,,,,,,,,,,,,,,,,,,,,,,,,,,,,,,,,,,,,,,,,,,,,,,,,,,,,,,,,,,,,,,258.78481228242026,None,258.78481228242026,None,259.2848757882907,None,263.27560745930987,263.27560745930987,0.009891937384054472,None,263.27560745930987,263.27560745930987,263.7650561834512,None,264.26576597381154,None,264.26576597381154,None,right,0,1.186976036476608,264.26576597381154,None,265.4656936797546,None,265.76582755526124,None,265.76582755526124,None,265.76582755526124,None,space,1.494813687246733,265.76582755526124,None,,,,,,,,,,,,,,,,,,,,,,,,,,,,,,,,,,,,,,,,,,,,,,,,,,,,,,,NENA_034,001,2021_Mar_03_1028,test7,3.2.4,100.16841334204562,
199,6,De gröna idéerna missade bussen i morse.,99,99,99,99,cor,1,no,,,0,5,5,5,0,0,0,0,,,,,,,,,,,,,,,,,,,,,,,,,,,,,,,,,,,,,,,,,,,,,,,,,,,,,,,,,,,,,,,,,,,,,,,,,,,,,,,,,,,,,,,,,,,,,,,,,,,,,,,,,,,,,,,,,,,,,,,,,,,,,,,,,,,,,,,,,,,,,,,,,,,,,,,,,,,,,,,,,,,,,,,,,,,,,,,,,,NENA_034,001,2021_Mar_03_1028,test7,3.2.4,100.16841334204562,
199,6,De gröna idéerna missade bussen i morse.,99,99,99,99,cor,1,no,,,0,5,5,5,,,,,,,,,,,,,,,,,,,,,,,,,,,,,,,,,,,,,,,,,,,,,,,,,,,,,,,,,,,,,,,,,,,,,,,,,,,,,,,,,,,,,,,,,,,,,,,,,,,,,,,,,,,,,,,,,,,,,,,,,,,,,,,,267.2765991772462,None,,,,,,,,,,,,,,,,,,,,,,,,,,,,,,,,,,,,,,,,,,,,,,,,,,,,,NENA_034,001,2021_Mar_03_1028,test7,3.2.4,100.16841334204562,
199,7,Det bruna bordet är mer än hundra år gamla.,99,99,99,99,inc,1,no,,,0,6,6,6,0,0,0,0,0,0,0,0,,,,,,,,,,,,,,,,,,,,,,,,,,,,,,,,,,,,,,,,,,,,,,,,,,,,,,,,,,,,,,,,,,,,,,,,,,,,,,,,,,,,,268.776620987343,None,268.776620987343,None,269.27673484887873,None,274.2776418923213,274.2776418923213,0.009889371491226484,None,274.2776418923213,274.2776418923213,274.76707201373256,None,275.26787096890075,None,275.26787096890075,None,left,0,1.1126064926093022,275.26787096890075,None,276.3977205882825,None,276.69834422875965,None,276.69834422875965,None,276.69834422875965,None,space,6.770039149123932,276.69834422875965,None,,,,,,,,,,,,,,,,,,,,,,,,,,,,,,,,,,,,,,,,,,,,,,,,,,,,,,,NENA_034,001,2021_Mar_03_1028,test7,3.2.4,100.16841334204562,
199,7,Det bruna bordet är mer än hundra år gamla.,99,99,99,99,inc,1,no,,,0,6,6,6,0,0,0,0,,,,,,,,,,,,,,,,,,,,,,,,,,,,,,,,,,,,,,,,,,,,,,,,,,,,,,,,,,,,,,,,,,,,,,,,,,,,,,,,,,,,,,,,,,,,,,,,,,,,,,,,,,,,,,,,,,,,,,,,,,,,,,,,,,,,,,,,,,,,,,,,,,,,,,,,,,,,,,,,,,,,,,,,,,,,,,,,,,NENA_034,001,2021_Mar_03_1028,test7,3.2.4,100.16841334204562,
199,7,Det bruna bordet är mer än hundra år gamla.,99,99,99,99,inc,1,no,,,0,6,6,6,,,,,,,,,,,,,,,,,,,,,,,,,,,,,,,,,,,,,,,,,,,,,,,,,,,,,,,,,,,,,,,,,,,,,,,,,,,,,,,,,,,,,,,,,,,,,,,,,,,,,,,,,,,,,,,,,,,,,,,,,,,,,,,,283.480296501853,None,,,,,,,,,,,,,,,,,,,,,,,,,,,,,,,,,,,,,,,,,,,,,,,,,,,,,NENA_034,001,2021_Mar_03_1028,test7,3.2.4,100.16841334204562,
199,8,På våren gilla alla att tillbringa tid i solen.,99,99,99,99,inc,1,no,,,0,7,7,7,0,0,0,0,0,0,0,0,,,,,,,,,,,,,,,,,,,,,,,,,,,,,,,,,,,,,,,,,,,,,,,,,,,,,,,,,,,,,,,,,,,,,,,,,,,,,,,,,,,,,284.9796595187281,None,284.9796595187281,None,285.4797101951299,None,290.48070576190685,290.48070576190685,0.009890333701150666,None,290.48070576190685,290.48070576190685,290.9701140732218,None,291.470815845164,None,291.470815845164,None,right,1,0.005533670620025077,291.470815845164,None,291.4918815121582,None,291.8106376823307,None,291.8106376823307,None,291.8106376823307,None,space,4.265583153880925,291.8106376823307,None,,,,,,,,,,,,,,,,,,,,,,,,,,,,,,,,,,,,,,,,,,,,,,,,,,,,,,,NENA_034,001,2021_Mar_03_1028,test7,3.2.4,100.16841334204562,
199,8,På våren gilla alla att tillbringa tid i solen.,99,99,99,99,inc,1,no,,,0,7,7,7,0,0,0,0,,,,,,,,,,,,,,,,,,,,,,,,,,,,,,,,,,,,,,,,,,,,,,,,,,,,,,,,,,,,,,,,,,,,,,,,,,,,,,,,,,,,,,,,,,,,,,,,,,,,,,,,,,,,,,,,,,,,,,,,,,,,,,,,,,,,,,,,,,,,,,,,,,,,,,,,,,,,,,,,,,,,,,,,,,,,,,,,,,NENA_034,001,2021_Mar_03_1028,test7,3.2.4,100.16841334204562,
199,8,På våren gilla alla att tillbringa tid i solen.,99,99,99,99,inc,1,no,,,0,7,7,7,,,,,,,,,,,,,,,,,,,,,,,,,,,,,,,,,,,,,,,,,,,,,,,,,,,,,,,,,,,,,,,,,,,,,,,,,,,,,,,,,,,,,,,,,,,,,,,,,,,,,,,,,,,,,,,,,,,,,,,,,,,,,,,,296.10163441017494,None,,,,,,,,,,,,,,,,,,,,,,,,,,,,,,,,,,,,,,,,,,,,,,,,,,,,,NENA_034,001,2021_Mar_03_1028,test7,3.2.4,100.16841334204562,
199,9,Tidningen avskedade dem journalist som publicerade falska fakta.,99,99,99,99,inc,1,no,,,0,8,8,8,0,0,0,0,0,0,0,0,,,,,,,,,,,,,,,,,,,,,,,,,,,,,,,,,,,,,,,,,,,,,,,,,,,,,,,,,,,,,,,,,,,,,,,,,,,,,,,,,,,,,297.6019811265687,None,297.6019811265687,None,298.10202827486637,None,302.60289747137585,302.60289747137585,0.009892578857488843,None,302.60289747137585,302.60289747137585,303.092333045312,None,303.5931015304918,None,303.5931015304918,None,right,1,2.0271160444694942,303.5931015304918,None,305.63329208659115,None,305.9335164098529,None,305.9335164098529,None,305.9335164098529,None,space,3.4306329867454224,305.9335164098529,None,,,,,,,,,,,,,,,,,,,,,,,,,,,,,,,,,,,,,,,,,,,,,,,,,,,,,,,NENA_034,001,2021_Mar_03_1028,test7,3.2.4,100.16841334204562,
199,9,Tidningen avskedade dem journalist som publicerade falska fakta.,99,99,99,99,inc,1,no,,,0,8,8,8,0,0,0,0,,,,,,,,,,,,,,,,,,,,,,,,,,,,,,,,,,,,,,,,,,,,,,,,,,,,,,,,,,,,,,,,,,,,,,,,,,,,,,,,,,,,,,,,,,,,,,,,,,,,,,,,,,,,,,,,,,,,,,,,,,,,,,,,,,,,,,,,,,,,,,,,,,,,,,,,,,,,,,,,,,,,,,,,,,,,,,,,,,NENA_034,001,2021_Mar_03_1028,test7,3.2.4,100.16841334204562,
199,9,Tidningen avskedade dem journalist som publicerade falska fakta.,99,99,99,99,inc,1,no,,,0,8,8,8,,,,,,,,,,,,,,,,,,,,,,,,,,,,,,,,,,,,,,,,,,,,,,,,,,,,,,,,,,,,,,,,,,,,,,,,,,,,,,,,,,,,,,,,,,,,,,,,,,,,,,,,,,,,,,,,,,,,,,,,,,,,,,,,309.3841816498825,None,,,,,,,,,,,,,,,,,,,,,,,,,,,,,,,,,,,,,,,,,,,,,,,,,,,,,NENA_034,001,2021_Mar_03_1028,test7,3.2.4,100.16841334204562,
199,10,Bra jobbat!,99,99,99,99,cor,1,no,,,0,9,9,9,0,0,0,0,0,0,0,0,,,,,,,,,,,,,,,,,,,,,,,,,,,,,,,,,,,,,,,,,,,,,,,,,,,,,,,,,,,,,,,,,,,,,,,,,,,,,,,,,,,,,310.8844600493553,None,310.8844600493553,None,311.38456749615625,None,312.8848462163651,312.8848462163651,0.00989289959488815,None,312.8848462163651,312.8848462163651,313.3742615838878,None,313.87498035487624,None,313.87498035487624,None,left,1,1.0810581874143281,313.87498035487624,None,314.97548641327194,None,315.2750112097483,None,315.2750112097483,None,315.2750112097483,None,space,3.5130187034410483,315.2750112097483,None,,,,,,,,,,,,,,,,,,,,,,,,,,,,,,,,,,,,,,,,,,,,,,,,,,,,,,,NENA_034,001,2021_Mar_03_1028,test7,3.2.4,100.16841334204562,
199,10,Bra jobbat!,99,99,99,99,cor,1,no,,,0,9,9,9,0,0,0,0,,,,,,,,,,,,,,,,,,,,,,,,,,,,,,,,,,,,,,,,,,,,,,,,,,,,,,,,,,,,,,,,,,,,,,,,,,,,,,,,,,,,,,,,,,,,,,,,,,,,,,,,,,,,,,,,,,,,,,,,,,,,,,,,,,,,,,,,,,,,,,,,,,,,,,,,,,,,,,,,,,,,,,,,,,,,,,,,,,NENA_034,001,2021_Mar_03_1028,test7,3.2.4,100.16841334204562,
199,10,Bra jobbat!,99,99,99,99,cor,1,no,,,0,9,9,9,,,,,,,,,,,,,,,,,,,,,,,,,,,,,,,,,,,,,,,,,,,,,,,,,,,,,,,,,,,,,,,,,,,,,,,,,,,,,,,,,,,,,,,,,,,,,,,,,,,,,,,,,,,,,,,,,,,,,,,,,,,,,,,,318.8064385972002,None,,,,,,,,,,,,,,,,,,,,,,,,,,,,,,,,,,,,,,,,,,,,,,,,,,,,,NENA_034,001,2021_Mar_03_1028,test7,3.2.4,100.16841334204562,
,,,,,,,,,,,,,,,,,,,,,,,,,,,,,,,,,,,,,,,,,,,,,,,,,,,,,,,,,,,,,,,,,,,,,,,,,,,,,,,,,,,,,,,,,,,,,,,,,,,,,,,,,,,,,,,,,,,,,,,,,,,,,,,,,,,,,,,,,,,,,,,,,320.306212477813,None,320.306212477813,None,space,5.385798162948504,320.306212477813,None,,,,,,,,,,,,,,,,,,,,,,,,,,,,,,,,,,,,,,,,,,,,,NENA_034,001,2021_Mar_03_1028,test7,3.2.4,100.16841334204562,
,,,,,,,,,,,,,,,,,,,,,,,,,,,,,,,,,,,,,,,,,,,,,,,,,,,,,,,,,,,,,,,,,,,,,,,,,,,,,,,,,,,,,,,,,,,,,,,,,,,,,,,,,,,,,,,,,,,,,,,,,,,,,,,,,,,,,,,,,,,,,,,,,,,,,,,,,325.70722510778387,None,325.70722510778387,None,space,98.85557514187803,325.70722510778387,None,,,,,,,,,,,,,,,,,,,,,,,,,,,,,,,,,,,,,NENA_034,001,2021_Mar_03_1028,test7,3.2.4,100.16841334204562,
,,,,,,,,,,,,,,,,,,,,,,,,,,,,,,,,,,,,,,,,,,,,,,,,,,,,,,,,,,,,,,,,,,,,,,,,,,,,,,,,,,,,,,,,,,,,,,,,,,,,,,,,,,,,,,,,,,,,,,,,,,,,,,,,,,,,,,,,,,,,,,,,,,,,,,,,,,,,,,,,,424.5755982862397,None,424.5755982862397,None,space,3.9390241007986333,424.5755982862397,None,,,,,,,,,,,,,,,,,,,,,,,,,,,,,NENA_034,001,2021_Mar_03_1028,test7,3.2.4,100.16841334204562,
,,,,,,,,,,,,,,,,,,,,,,,,,,,,,,,,,,,,,,,,,,,,,,,,,,,,,,,,,,,,,,,,,,,,,,,,,,,,,,,,,,,,,,,,,,,,,,,,,,,,,,,,,,,,,,,,,,,,,,,,,,,,,,,,,,,,,,,,,,,,,,,,,,,,,,,,,,,,,,,,,,,,,,,,,428.5263058635164,None,428.5263058635164,None,space,2.364244013930147,428.5263058635164,None,,,,,,,,,,,,,,,,,,,,,NENA_034,001,2021_Mar_03_1028,test7,3.2.4,100.16841334204562,
180,28,Berget som de underbetalda gruvarbetarna hade fått i uppgift att spränga var fullkomligt ogenomtränglig och de gav därför upp.,14,,0,,inc,1,no,182,199,,,,,,,,,,,,,0,0,0,0,,,,,,,,,,,,,,,,,,,,,,,,,,,,,,,,,,,,,,,,,,,,,,,,,,,,,,,,,,,,,,,,,,,,,,,,,,,,,,,,,,,,,,,,,,,,,441.90813555103523,None,442.4089194315775,None,442.4089194315775,None,left,0,1.0415867230390177,442.4089194315775,None,,,,,,,,,,,,,443.47911715293594,None,,,,,,,,,,,,,,,,,,,,,,,,,,,,,,,,,431.0061251091306,None,431.0061251091306,None,431.4168358552861,None,441.41870767478076,441.41870767478076,0.009859222239356313,None,441.41870767478076,441.41870767478076,444.97935170769875,None,444.97935170769875,None,None,0.008074963868693885,None,,NENA_034,001,2021_Mar_03_1028,test7,3.2.4,100.16841334204562,
170,110,Vattnet var mycket kall mot den varma huden. ,4,,0,,inc,1,no,174,199,,,,,,,,,,,,,0,1,1,1,,,,,,,,,,,,,,,,,,,,,,,,,,,,,,,,,,,,,,,,,,,,,,,,,,,,,,,,,,,,,,,,,,,,,,,,,,,,,,,,,,,,,,,,,,,,,450.4797361748042,None,450.98052197976676,None,450.98052197976676,None,left,0,1.5337867267598995,450.98052197976676,None,,,,,,,,,,,,,452.53047255423826,None,,,,,,,,,,,,,,,,,,,,,,,,,,,,,,,,,444.98929477051615,None,444.98929477051615,None,445.4895010042269,None,449.9903118266534,449.9903118266534,0.009867882130492944,None,449.9903118266534,449.9903118266534,454.0310522217115,None,454.0310522217115,None,None,0.008132375741752185,None,,NENA_034,001,2021_Mar_03_1028,test7,3.2.4,100.16841334204562,
130,68,Kockar skär ofta grönsaker med vass kniv.,3,,4,,cor,1,no,137,138,,,,,,,,,,,,,0,2,2,2,,,,,,,,,,,,,,,,,,,,,,,,,,,,,,,,,,,,,,,,,,,,,,,,,,,,,,,,,,,,,,,,,,,,,,,,,,,,,,,,,,,,,,,,,,,,,459.0313350152769,None,459.5320903502511,None,459.5320903502511,None,right,0,0.934103037312525,459.5320903502511,None,,,,,,,,,,,,,460.482369102534,None,,,,,,,,,,,,,,,,,,,,,,,,,,,,,,,,,454.0411036935402,None,454.0411036935402,None,454.54111010827455,None,458.54189302660643,458.54189302660643,0.009863071079962538,None,458.54189302660643,458.54189302660643,461.98244970367165,None,461.98244970367165,None,None,0.008139752686474822,None,,NENA_034,001,2021_Mar_03_1028,test7,3.2.4,100.16841334204562,
160,23,Mannen med den vita bilen upptäckte en allvarlig balkongbrand som de nya hyresgästerna i lägenheten bredvid inte hade brytt sig om.,17,,18,,cor,1,no,161,162,,,,,,,,,,,,,0,3,3,3,,,,,,,,,,,,,,,,,,,,,,,,,,,,,,,,,,,,,,,,,,,,,,,,,,,,,,,,,,,,,,,,,,,,,,,,,,,,,,,,,,,,,,,,,,,,,473.97410852832536,None,474.47466211990286,None,474.47466211990286,None,left,1,4.0394037889268475,474.47466211990286,None,,,,,,,,,,,,,478.5256015256805,None,,,,,,,,,,,,,,,,,,,,,,,,,,,,,,,,,461.9925521726386,None,461.9925521726386,None,462.4926195273497,None,473.4846437673482,473.4846437673482,0.009856335608219524,None,473.4846437673482,473.4846437673482,480.02586238085456,None,480.02586238085456,None,None,0.007768339565245697,None,,NENA_034,001,2021_Mar_03_1028,test7,3.2.4,100.16841334204562,
150,12,Turisterna hade skidor som instruktörerna inte ville godkänna.  ,6,,7,,cor,1,no,151,152,,,,,,,,,,,,,0,4,4,4,,,,,,,,,,,,,,,,,,,,,,,,,,,,,,,,,,,,,,,,,,,,,,,,,,,,,,,,,,,,,,,,,,,,,,,,,,,,,,,,,,,,,,,,,,,,,485.52625101753756,None,486.0270348980798,None,486.0270348980798,None,left,1,0.9028507721095593,486.0270348980798,None,,,,,,,,,,,,,486.9469745225997,None,,,,,,,,,,,,,,,,,,,,,,,,,,,,,,,,,480.035921871101,None,480.035921871101,None,480.53598730139174,None,485.03679972750206,485.03679972750206,0.009866278447134391,None,485.03679972750206,485.03679972750206,488.4474287820154,None,488.4474287820154,None,None,0.007985157587427238,None,,NENA_034,001,2021_Mar_03_1028,test7,3.2.4,100.16841334204562,
180,44,Bröllopet som för att vara en vuxenfest avslutades alldeles för tidigt var ändå jättelyckad enligt de flesta gästerna. ,14,,0,,inc,1,no,182,199,,,,,,,,,,,,,0,5,5,5,,,,,,,,,,,,,,,,,,,,,,,,,,,,,,,,,,,,,,,,,,,,,,,,,,,,,,,,,,,,,,,,,,,,,,,,,,,,,,,,,,,,,,,,,,,,,498.94874338560703,None,499.4494948717406,None,499.4494948717406,None,right,1,0.592273067545193,499.4494948717406,None,,,,,,,,,,,,,500.0595842225762,None,,,,,,,,,,,,,,,,,,,,,,,,,,,,,,,,,488.4574260493382,None,488.4574260493382,None,488.95753509982296,None,498.45932930103163,498.45932930103163,0.009867561393548385,None,498.45932930103163,498.45932930103163,501.5598749062647,None,501.5598749062647,None,None,0.007849485955375712,None,,NENA_034,001,2021_Mar_03_1028,test7,3.2.4,100.16841334204562,
180,42,Vasen som hade prytt det lilla vardagsrummet sedan många år tillbaka var nu sprucken men fortfarande mycket omtyckt. ,14,,0,,cor,1,no,181,199,,,,,,,,,,,,,0,6,6,6,,,,,,,,,,,,,,,,,,,,,,,,,,,,,,,,,,,,,,,,,,,,,,,,,,,,,,,,,,,,,,,,,,,,,,,,,,,,,,,,,,,,,,,,,,,,,512.0611664168127,None,512.561931053152,None,512.561931053152,None,right,0,9.407625900388211,512.561931053152,None,,,,,,,,,,,,,521.9935839826649,None,,,,,,,,,,,,,,,,,,,,,,,,,,,,,,,,,501.56988436158326,None,501.56988436158326,None,502.0699802618624,None,511.5717635580222,511.5717635580222,0.00986563697370002,None,511.5717635580222,511.5717635580222,523.4939205317046,None,523.4939205317046,None,None,0.008950895849920926,None,,NENA_034,001,2021_Mar_03_1028,test7,3.2.4,100.16841334204562,
140,40,Apotekare säljer ofta medicin som är onödigt.,3,,4,,inc,1,no,133,134,,,,,,,,,,,,,0,7,7,7,,,,,,,,,,,,,,,,,,,,,,,,,,,,,,,,,,,,,,,,,,,,,,,,,,,,,,,,,,,,,,,,,,,,,,,,,,,,,,,,,,,,,,,,,,,,,528.4942030045336,None,528.9949775837108,None,528.9949775837108,None,right,1,1.2943974992799667,528.9949775837108,None,,,,,,,,,,,,,530.305411598225,None,,,,,,,,,,,,,,,,,,,,,,,,,,,,,,,,,523.5039681546928,None,523.5039681546928,None,524.0040371130872,None,528.004834464572,528.004834464572,0.009866278446679644,None,528.004834464572,528.004834464572,531.8054957274662,None,531.8054957274662,None,None,0.008122753639781877,None,,NENA_034,001,2021_Mar_03_1028,test7,3.2.4,100.16841334204562,
170,120,Filten är väldigt tjock och skyddar bra mot kylan. ,4,,0,,cor,1,no,171,199,,,,,,,,,,,,,0,8,8,8,,,,,,,,,,,,,,,,,,,,,,,,,,,,,,,,,,,,,,,,,,,,,,,,,,,,,,,,,,,,,,,,,,,,,,,,,,,,,,,,,,,,,,,,,,,,,537.8059700008534,None,538.3067064123611,None,538.3067064123611,None,left,1,0.1265617472708982,538.3067064123611,None,,,,,,,,,,,,,538.4467307626928,None,,,,,,,,,,,,,,,,,,,,,,,,,,,,,,,,,531.8155006924708,None,531.8155006924708,None,532.3155395016138,None,537.3165296158668,537.3165296158668,0.00986563697370002,None,537.3165296158668,537.3165296158668,539.9469861653424,None,539.9469861653424,None,None,0.008261632639460004,None,,NENA_034,001,2021_Mar_03_1028,test7,3.2.4,100.16841334204562,
130,31,Arbetsgivare sänker ibland lönen utan att informera facket.,3,,4,,cor,1,no,133,134,,,,,,,,,,,,,0,9,9,9,,,,,,,,,,,,,,,,,,,,,,,,,,,,,,,,,,,,,,,,,,,,,,,,,,,,,,,,,,,,,,,,,,,,,,,,,,,,,,,,,,,,,,,,,,,,,545.4473876314942,None,545.9481230807919,None,545.9481230807919,None,right,0,2.4690671885696247,545.9481230807919,None,,,,,,,,,,,,,548.4286723231794,None,,,,,,,,,,,,,,,,,,,,,,,,,,,,,,,,,539.956995620661,None,539.956995620661,None,540.4570921624136,None,544.9579510953481,544.9579510953481,0.009867240657058574,None,544.9579510953481,544.9579510953481,549.9288622955382,None,549.9288622955382,None,None,0.007719587583778775,None,,NENA_034,001,2021_Mar_03_1028,test7,3.2.4,100.16841334204562,
160,18,Den lättretade försäljaren hade en fruktansvärt dålig attityd som minst hälften av hans nuvarande kunder kunde inte stå ut med.,16,,17,,inc,1,no,163,164,,,,,,,,,,,,,0,10,10,10,,,,,,,,,,,,,,,,,,,,,,,,,,,,,,,,,,,,,,,,,,,,,,,,,,,,,,,,,,,,,,,,,,,,,,,,,,,,,,,,,,,,,,,,,,,,,561.4303385504368,None,561.9310823388892,None,561.9310823388892,None,left,0,3.18186124801241,561.9310823388892,None,,,,,,,,,,,,,565.1316887237308,None,,,,,,,,,,,,,,,,,,,,,,,,,,,,,,,,,549.9388451297091,None,549.9388451297091,None,550.4389442373554,None,560.9408904677689,560.9408904677689,0.00986339181645235,None,560.9408904677689,560.9408904677689,566.6319701060547,None,566.6319701060547,None,None,0.008082020076471963,None,,NENA_034,001,2021_Mar_03_1028,test7,3.2.4,100.16841334204562,
170,18,Kexet är för sött för morföräldrarna.  ,4,,0,,cor,1,no,173,199,,,,,,,,,,,,,0,11,11,11,,,,,,,,,,,,,,,,,,,,,,,,,,,,,,,,,,,,,,,,,,,,,,,,,,,,,,,,,,,,,,,,,,,,,,,,,,,,,,,,,,,,,,,,,,,,,571.1321239634594,None,571.6329132965257,None,571.6329132965257,None,left,1,1.647949433931899,571.6329132965257,None,,,,,,,,,,,,,573.2929192237402,None,,,,,,,,,,,,,,,,,,,,,,,,,,,,,,,,,566.641948129175,None,566.641948129175,None,567.1420385769297,None,570.642754140551,570.642754140551,0.009866278446679644,None,570.642754140551,570.642754140551,574.7934523843887,None,574.7934523843887,None,None,0.008218333182412607,None,,NENA_034,001,2021_Mar_03_1028,test7,3.2.4,100.16841334204562,
160,58,Blommorna i trädgården utsöndrade ett illaluktande ämne som den mycket erfarna trädgårdsmästaren i byn ville inte komma nära.,15,,16,,inc,1,no,163,164,,,,,,,,,,,,,0,12,12,12,,,,,,,,,,,,,,,,,,,,,,,,,,,,,,,,,,,,,,,,,,,,,,,,,,,,,,,,,,,,,,,,,,,,,,,,,,,,,,,,,,,,,,,,,,,,,585.2947528755653,None,585.7955701127262,None,585.7955701127262,None,right,1,0.277093432530819,585.7955701127262,None,,,,,,,,,,,,,586.0858884824088,None,,,,,,,,,,,,,,,,,,,,,,,,,,,,,,,,,574.8034868571717,None,574.8034868571717,None,575.3034663300214,None,584.8053657328737,584.8053657328737,0.009867882130947692,None,584.8053657328737,584.8053657328737,587.5858805602115,None,587.5858805602115,None,None,0.00809901912271016,None,,NENA_034,001,2021_Mar_03_1028,test7,3.2.4,100.16841334204562,
170,62,Vulkanutbrottet var helt oväntad och många hus förstördes. ,4,,0,,inc,1,no,174,199,,,,,,,,,,,,,0,13,13,13,,,,,,,,,,,,,,,,,,,,,,,,,,,,,,,,,,,,,,,,,,,,,,,,,,,,,,,,,,,,,,,,,,,,,,,,,,,,,,,,,,,,,,,,,,,,,593.0862332743823,None,593.5869684029431,None,593.5869684029431,None,left,0,1.3416243775300245,593.5869684029431,None,,,,,,,,,,,,,594.9470931951855,None,,,,,,,,,,,,,,,,,,,,,,,,,,,,,,,,,587.595843187969,None,587.595843187969,None,588.0959471066662,None,592.5968320192751,592.5968320192751,0.00986339181645235,None,592.5968320192751,592.5968320192751,596.4474964574629,None,596.4474964574629,None,None,0.008316799354815885,None,,NENA_034,001,2021_Mar_03_1028,test7,3.2.4,100.16841334204562,
130,33,Kungar bär ofta krona under viktiga ceremonier.,3,,4,,cor,1,no,133,134,,,,,,,,,,,,,0,14,14,14,,,,,,,,,,,,,,,,,,,,,,,,,,,,,,,,,,,,,,,,,,,,,,,,,,,,,,,,,,,,,,,,,,,,,,,,,,,,,,,,,,,,,,,,,,,,,601.44778694871,None,601.9485477362082,None,601.9485477362082,None,left,1,0.8519585146295867,601.9485477362082,None,,,,,,,,,,,,,602.8184469799753,None,,,,,,,,,,,,,,,,,,,,,,,,,,,,,,,,,596.4574029562946,None,596.4574029562946,None,596.9576390185202,None,600.9583221877324,600.9583221877324,0.009860825922714866,None,600.9583221877324,600.9583221877324,604.3189528780026,None,604.3189528780026,None,None,0.008533938114396733,None,,NENA_034,001,2021_Mar_03_1028,test7,3.2.4,100.16841334204562,
130,46,Idrottare lyfter ofta vikter för att stärka ryggen.,3,,4,,cor,1,no,135,136,,,,,,,,,,,,,0,15,15,15,,,,,,,,,,,,,,,,,,,,,,,,,,,,,,,,,,,,,,,,,,,,,,,,,,,,,,,,,,,,,,,,,,,,,,,,,,,,,,,,,,,,,,,,,,,,,609.8193293266904,None,610.3201106413389,None,610.3201106413389,None,left,1,0.9762343713014161,610.3201106413389,None,,,,,,,,,,,,,611.3100436779264,None,,,,,,,,,,,,,,,,,,,,,,,,,,,,,,,,,604.3289658614253,None,604.3289658614253,None,604.8290717045425,None,609.3299008089621,609.3299008089621,0.009866278446679644,None,609.3299008089621,609.3299008089621,612.8105402745891,None,612.8105402745891,None,None,0.007620159200541821,None,,NENA_034,001,2021_Mar_03_1028,test7,3.2.4,100.16841334204562,
150,2,Flickan plockade äpplet men pojken inte ville ha det.  ,6,,7,,inc,1,no,157,158,,,,,,,,,,,,,0,16,16,16,,,,,,,,,,,,,,,,,,,,,,,,,,,,,,,,,,,,,,,,,,,,,,,,,,,,,,,,,,,,,,,,,,,,,,,,,,,,,,,,,,,,,,,,,,,,,618.8110222456576,None,619.3117576949553,None,619.3117576949553,None,left,0,0.8085323665045507,619.3117576949553,None,,,,,,,,,,,,,620.1319016929128,None,,,,,,,,,,,,,,,,,,,,,,,,,,,,,,,,,612.8205356174922,None,612.8205356174922,None,613.3206164431454,None,618.3216033500312,618.3216033500312,0.00986339181645235,None,618.3216033500312,618.3216033500312,621.6321769812389,None,621.6321769812389,None,None,0.007880276680225506,None,,NENA_034,001,2021_Mar_03_1028,test7,3.2.4,100.16841334204562,
180,59,Bankrånet som genomfördes under onsdagen på ett växlingskontor i centrala Norrköping var ganska välplanerat och rånarna lyckades fly. ,14,,0,,cor,1,no,181,199,,,,,,,,,,,,,0,17,17,17,,,,,,,,,,,,,,,,,,,,,,,,,,,,,,,,,,,,,,,,,,,,,,,,,,,,,,,,,,,,,,,,,,,,,,,,,,,,,,,,,,,,,,,,,,,,,632.1334713784177,None,632.6342260719184,None,632.6342260719184,None,left,1,1.1338415085915585,632.6342260719184,None,,,,,,,,,,,,,633.7849056168056,None,,,,,,,,,,,,,,,,,,,,,,,,,,,,,,,,,621.6421774559294,None,621.6421774559294,None,622.1422525083217,None,631.6440858394099,631.6440858394099,0.009865316236755461,None,631.6440858394099,631.6440858394099,635.2847264212005,None,635.2847264212005,None,None,0.007819978176939912,None,,NENA_034,001,2021_Mar_03_1028,test7,3.2.4,100.16841334204562,
180,27,Folket som såg den nya konservativa ministern på gatan den dagen blev glatt överraskat över färgvalet.  ,14,,0,,cor,1,no,181,199,,,,,,,,,,,,,0,18,18,18,,,,,,,,,,,,,,,,,,,,,,,,,,,,,,,,,,,,,,,,,,,,,,,,,,,,,,,,,,,,,,,,,,,,,,,,,,,,,,,,,,,,,,,,,,,,,644.7858248482435,None,645.2865660708021,None,645.2865660708021,None,left,1,6.9773245554106325,645.2865660708021,None,,,,,,,,,,,,,652.2778583896065,None,,,,,,,,,,,,,,,,,,,,,,,,,,,,,,,,,635.2947188774729,None,635.2947188774729,None,635.7948199095395,None,644.2963995378827,644.2963995378827,0.009863712553396908,None,644.2963995378827,644.2963995378827,653.7781805054938,None,653.7781805054938,None,None,0.008608990506672853,None,,NENA_034,001,2021_Mar_03_1028,test7,3.2.4,100.16841334204562,
180,51,Locket som den omtänksamma föräldern till den lilla pojken hade satt på matlådan var lite löst och maten föll ur. ,16,,0,,cor,1,no,181,199,,,,,,,,,,,,,0,19,19,19,,,,,,,,,,,,,,,,,,,,,,,,,,,,,,,,,,,,,,,,,,,,,,,,,,,,,,,,,,,,,,,,,,,,,,,,,,,,,,,,,,,,,,,,,,,,,665.2796452138705,None,665.7803819461151,None,665.7803819461151,None,right,0,1.611267416805731,665.7803819461151,None,,,,,,,,,,,,,667.410394820487,None,,,,,,,,,,,,,,,,,,,,,,,,,,,,,,,,,653.7880536477069,None,653.7880536477069,None,654.2882377505839,None,664.7901669819512,664.7901669819512,0.00986339181645235,None,664.7901669819512,664.7901669819512,668.9109465838656,None,668.9109465838656,None,None,0.007544144598341518,None,,NENA_034,001,2021_Mar_03_1028,test7,3.2.4,100.16841334204562,
150,98,Arrangörerna genomförde tävlingen men idrottarna inte ville delta i den.  ,6,,7,,inc,1,no,157,158,,,,,,,,,,,,,0,20,20,20,,,,,,,,,,,,,,,,,,,,,,,,,,,,,,,,,,,,,,,,,,,,,,,,,,,,,,,,,,,,,,,,,,,,,,,,,,,,,,,,,,,,,,,,,,,,,675.411526379633,None,675.9122470750417,None,675.9122470750417,None,left,0,3.383175498793662,675.9122470750417,None,,,,,,,,,,,,,679.3129101019881,None,,,,,,,,,,,,,,,,,,,,,,,,,,,,,,,,,668.9210131303198,None,668.9210131303198,None,669.4211132001765,None,674.9220593734985,674.9220593734985,0.009865316237210209,None,674.9220593734985,674.9220593734985,680.8131504300118,None,680.8131504300118,None,None,0.008265802217010787,None,,NENA_034,001,2021_Mar_03_1028,test7,3.2.4,100.16841334204562,
150,86,Sjön lagrar vatten men bönderna får inte använda det.  ,6,,7,,cor,1,no,155,156,,,,,,,,,,,,,0,21,21,21,,,,,,,,,,,,,,,,,,,,,,,,,,,,,,,,,,,,,,,,,,,,,,,,,,,,,,,,,,,,,,,,,,,,,,,,,,,,,,,,,,,,,,,,,,,,,686.8136452305489,None,687.3143425121771,None,687.3143425121771,None,left,1,9.52492284678192,687.3143425121771,None,,,,,,,,,,,,,696.8558698989232,None,,,,,,,,,,,,,,,,,,,,,,,,,,,,,,,,,680.8231909967922,None,680.8231909967922,None,681.3232557856095,None,686.3241977893545,686.3241977893545,0.009863712553396908,None,686.3241977893545,686.3241977893545,698.3564668861791,None,698.3564668861791,None,None,0.007784697138049523,None,,NENA_034,001,2021_Mar_03_1028,test7,3.2.4,100.16841334204562,
180,2,Explosionen som efter mörkrets inbrott hade skett i parkeringshuset framstod som oerhört kraftfull även i grannkommunen. ,13,,0,,cor,1,no,181,199,,,,,,,,,,,,,0,22,22,22,,,,,,,,,,,,,,,,,,,,,,,,,,,,,,,,,,,,,,,,,,,,,,,,,,,,,,,,,,,,,,,,,,,,,,,,,,,,,,,,,,,,,,,,,,,,,707.8475410077936,None,708.3482690801466,None,708.3482690801466,None,left,1,1.66683441197074,708.3482690801466,None,,,,,,,,,,,,,710.0283123924332,None,,,,,,,,,,,,,,,,,,,,,,,,,,,,,,,,,698.3664654364488,None,698.3664654364488,None,698.866536319264,None,707.3581310927952,707.3581310927952,0.00986499550026565,None,707.3581310927952,707.3581310927952,711.5289106626356,None,711.5289106626356,None,None,0.007666666024761071,None,,NENA_034,001,2021_Mar_03_1028,test7,3.2.4,100.16841334204562,
160,31,Bondsonen i granngården sätter en ny sorts potatis som de något äldre bönderna i samhället inte vill använda.,16,,17,,cor,1,no,161,162,,,,,,,,,,,,,0,23,23,23,,,,,,,,,,,,,,,,,,,,,,,,,,,,,,,,,,,,,,,,,,,,,,,,,,,,,,,,,,,,,,,,,,,,,,,,,,,,,,,,,,,,,,,,,,,,,722.0301681750916,None,722.5309132464909,None,722.5309132464909,None,right,0,0.3880885438616133,722.5309132464909,None,,,,,,,,,,,,,722.9309780994554,None,,,,,,,,,,,,,,,,,,,,,,,,,,,,,,,,,711.5388883650189,None,711.5388883650189,None,712.039004150975,None,721.540756014936,721.540756014936,0.009865957710189832,None,721.540756014936,721.540756014936,724.4312691038808,None,724.4312691038808,None,None,0.008613480820713448,None,,NENA_034,001,2021_Mar_03_1028,test7,3.2.4,100.16841334204562,
130,44,Piloter flyger ofta flygplan i dåligt väder.,3,,4,,cor,1,no,135,136,,,,,,,,,,,,,0,24,24,24,,,,,,,,,,,,,,,,,,,,,,,,,,,,,,,,,,,,,,,,,,,,,,,,,,,,,,,,,,,,,,,,,,,,,,,,,,,,,,,,,,,,,,,,,,,,,729.4315348984005,None,729.932311722735,None,729.932311722735,None,left,1,1.594521111211634,729.932311722735,None,,,,,,,,,,,,,731.5424969738492,None,,,,,,,,,,,,,,,,,,,,,,,,,,,,,,,,,724.4412945960353,None,724.4412945960353,None,724.9413625922198,None,728.9421339640303,728.9421339640303,0.009861467396149237,None,728.9421339640303,728.9421339640303,733.0428825956069,None,733.0428825956069,None,None,0.007679816230393044,None,,NENA_034,001,2021_Mar_03_1028,test7,3.2.4,100.16841334204562,
140,77,Förlag får ofta manuskript av okända författarna.,3,,4,,inc,1,no,137,138,,,,,,,,,,,,,0,25,25,25,,,,,,,,,,,,,,,,,,,,,,,,,,,,,,,,,,,,,,,,,,,,,,,,,,,,,,,,,,,,,,,,,,,,,,,,,,,,,,,,,,,,,,,,,,,,,738.0431458242324,None,738.5438783868999,None,738.5438783868999,None,left,0,0.15086877955172895,738.5438783868999,None,,,,,,,,,,,,,738.7136417665924,None,,,,,,,,,,,,,,,,,,,,,,,,,,,,,,,,,733.05292091723,None,733.05292091723,None,733.5529744802625,None,737.5537047977723,737.5537047977723,0.009867882130492944,None,737.5537047977723,737.5537047977723,740.214198982495,None,740.214198982495,None,None,0.007711569166076515,None,,NENA_034,001,2021_Mar_03_1028,test7,3.2.4,100.16841334204562,
170,90,Solsystemet är väldigt liten jämfört med hela universum. ,4,,0,,cor,1,no,173,199,,,,,,,,,,,,,0,26,26,26,,,,,,,,,,,,,,,,,,,,,,,,,,,,,,,,,,,,,,,,,,,,,,,,,,,,,,,,,,,,,,,,,,,,,,,,,,,,,,,,,,,,,,,,,,,,,745.7145779970765,None,746.2153650849859,None,746.2153650849859,None,left,1,3.63134200733748,746.2153650849859,None,,,,,,,,,,,,,749.8557996575814,None,,,,,,,,,,,,,,,,,,,,,,,,,,,,,,,,,740.2242552653743,None,740.2242552653743,None,740.724305941776,None,745.2251465927179,745.2251465927179,0.00986563697370002,None,745.2251465927179,745.2251465927179,751.3562744441474,None,751.3562744441474,None,None,0.008284084210117726,None,,NENA_034,001,2021_Mar_03_1028,test7,3.2.4,100.16841334204562,
140,58,Keramiker formar gärna krukor och färgrik vaser.,3,,4,,inc,1,no,135,136,,,,,,,,,,,,,0,27,27,27,,,,,,,,,,,,,,,,,,,,,,,,,,,,,,,,,,,,,,,,,,,,,,,,,,,,,,,,,,,,,,,,,,,,,,,,,,,,,,,,,,,,,,,,,,,,,756.35656044508,None,756.8573093653199,None,756.8573093653199,None,left,0,1.7411815042678427,756.8573093653199,None,,,,,,,,,,,,,758.6173139454404,None,,,,,,,,,,,,,,,,,,,,,,,,,,,,,,,,,751.3663028229321,None,751.3663028229321,None,751.8663672910129,None,755.8671274370381,755.8671274370381,0.009866278447134391,None,755.8671274370381,755.8671274370381,760.1179080460656,None,760.1179080460656,None,None,0.008744341402689315,None,,NENA_034,001,2021_Mar_03_1028,test7,3.2.4,100.16841334204562,
170,85,Mönstret var mycket smakfullt i sammanhanget.  ,4,,0,,cor,1,no,173,199,,,,,,,,,,,,,0,28,28,28,,,,,,,,,,,,,,,,,,,,,,,,,,,,,,,,,,,,,,,,,,,,,,,,,,,,,,,,,,,,,,,,,,,,,,,,,,,,,,,,,,,,,,,,,,,,,764.6080821804453,None,765.1088214785836,None,765.1088214785836,None,right,0,1.4257606752403262,765.1088214785836,None,,,,,,,,,,,,,766.5489059349766,None,,,,,,,,,,,,,,,,,,,,,,,,,,,,,,,,,760.1279418773747,None,760.1279418773747,None,760.6280105150327,None,764.1186328148306,764.1186328148306,0.009864354026376532,None,764.1186328148306,764.1186328148306,768.0493743068077,None,768.0493743068077,None,None,0.007648384032108879,None,,NENA_034,001,2021_Mar_03_1028,test7,3.2.4,100.16841334204562,
130,25,Korrekturläsare letar ofta fel i tidigare publicerade artiklar.,3,,4,,cor,1,no,133,134,,,,,,,,,,,,,0,29,29,29,,,,,,,,,,,,,,,,,,,,,,,,,,,,,,,,,,,,,,,,,,,,,,,,,,,,,,,,,,,,,,,,,,,,,,,,,,,,,,,,,,,,,,,,,,,,,773.5497459444446,None,774.0505304664603,None,774.0505304664603,None,left,1,6.715840737540475,774.0505304664603,None,,,,,,,,,,,,,780.781751491907,None,,,,,,,,,,,,,,,,,,,,,,,,,,,,,,,,,768.0593712533941,None,768.0593712533941,None,768.559513339761,None,773.0603276902916,773.0603276902916,0.009866919920114015,None,773.0603276902916,773.0603276902916,782.2820627027459,None,782.2820627027459,None,None,0.007705795905167179,None,,NENA_034,001,2021_Mar_03_1028,test7,3.2.4,100.16841334204562,
170,76,Gitarren är redan stämt och mikrofonerna är på plats. ,4,,0,,inc,1,no,172,199,,,,,,,,,,,,,0,30,30,30,,,,,,,,,,,,,,,,,,,,,,,,,,,,,,,,,,,,,,,,,,,,,,,,,,,,,,,,,,,,,,,,,,,,,,,,,,,,,,,,,,,,,,,,,,,,,788.2824853375209,None,788.7832650484861,None,788.7832650484861,None,left,0,1.87082553141272,788.7832650484861,None,,,,,,,,,,,,,790.6631703156886,None,,,,,,,,,,,,,,,,,,,,,,,,,,,,,,,,,782.292067026277,None,782.292067026277,None,782.7921215515189,None,787.7930330852755,787.7930330852755,0.009861788132639049,None,787.7930330852755,787.7930330852755,792.1638709009044,None,792.1638709009044,None,None,0.008091962914932083,None,,NENA_034,001,2021_Mar_03_1028,test7,3.2.4,100.16841334204562,
140,16,Pirater hittar ibland skatter nedgrävda i market.,3,,4,,inc,1,no,131,132,,,,,,,,,,,,,0,31,31,31,,,,,,,,,,,,,,,,,,,,,,,,,,,,,,,,,,,,,,,,,,,,,,,,,,,,,,,,,,,,,,,,,,,,,,,,,,,,,,,,,,,,,,,,,,,,,797.1641020558582,None,797.6649250662804,None,797.6649250662804,None,left,0,1.5651836442234526,797.6649250662804,None,,,,,,,,,,,,,799.2450483061575,None,,,,,,,,,,,,,,,,,,,,,,,,,,,,,,,,,792.1738774695928,None,792.1738774695928,None,792.6738421885534,None,796.6743473488868,796.6743473488868,0.009863071079962538,None,796.6743473488868,796.6743473488868,800.7454727370582,None,800.7454727370582,None,None,0.008328345877089305,None,,NENA_034,001,2021_Mar_03_1028,test7,3.2.4,100.16841334204562,
160,35,De lediga stadsborna utnyttjar alla de svårfunna badplatser som de badsugna turisterna från södra Europa kan inte hitta.,16,,17,,inc,1,no,163,164,,,,,,,,,,,,,0,32,32,32,,,,,,,,,,,,,,,,,,,,,,,,,,,,,,,,,,,,,,,,,,,,,,,,,,,,,,,,,,,,,,,,,,,,,,,,,,,,,,,,,,,,,,,,,,,,,811.2467315324611,None,811.7475073945852,None,811.7475073945852,None,left,0,1.3062958693603832,811.7475073945852,None,,,,,,,,,,,,,813.0677825738608,None,,,,,,,,,,,,,,,,,,,,,,,,,,,,,,,,,800.755489890058,None,800.755489890058,None,801.2555293406745,None,810.7573049391531,810.7573049391531,0.009864354026376532,None,810.7573049391531,810.7573049391531,814.5680001295777,None,814.5680001295777,None,None,0.00823404928223681,None,,NENA_034,001,2021_Mar_03_1028,test7,3.2.4,100.16841334204562,
170,16,Båten är kraftigt skadad och måste bogseras.  ,4,,0,,cor,1,no,171,199,,,,,,,,,,,,,0,33,33,33,,,,,,,,,,,,,,,,,,,,,,,,,,,,,,,,,,,,,,,,,,,,,,,,,,,,,,,,,,,,,,,,,,,,,,,,,,,,,,,,,,,,,,,,,,,,,819.5682989599791,None,820.0689013035385,None,820.0689013035385,None,left,1,0.1448658711110511,820.0689013035385,None,,,,,,,,,,,,,820.2288905524433,None,,,,,,,,,,,,,,,,,,,,,,,,,,,,,,,,,814.5780121507901,None,814.5780121507901,None,815.07811478654,None,819.0788528017315,819.0788528017315,0.009865957710189832,None,819.0788528017315,819.0788528017315,821.729339038598,None,821.729339038598,None,None,0.008270292531051382,None,,NENA_034,001,2021_Mar_03_1028,test7,3.2.4,100.16841334204562,
170,53,Programmet är vanligtvis tråkigt på lördagskvällen.  ,4,,0,,cor,1,no,173,199,,,,,,,,,,,,,0,34,34,34,,,,,,,,,,,,,,,,,,,,,,,,,,,,,,,,,,,,,,,,,,,,,,,,,,,,,,,,,,,,,,,,,,,,,,,,,,,,,,,,,,,,,,,,,,,,,826.2295397235634,None,826.7302819083325,None,826.7302819083325,None,left,1,1.2832679351163279,826.7302819083325,None,,,,,,,,,,,,,828.030348429128,None,,,,,,,,,,,,,,,,,,,,,,,,,,,,,,,,,821.7393757565378,None,821.7393757565378,None,822.2394389416718,None,825.7401047911012,825.7401047911012,0.009865636973245273,None,825.7401047911012,825.7401047911012,829.5308151972754,None,829.5308151972754,None,None,0.008476846978282992,None,,NENA_034,001,2021_Mar_03_1028,test7,3.2.4,100.16841334204562,
180,26,Bänken som det äldre paret älskar att sitta på efter sina dagliga promenader är alldeles nymålad och kan inte användas. ,16,,0,,cor,1,no,181,199,,,,,,,,,,,,,0,35,35,35,,,,,,,,,,,,,,,,,,,,,,,,,,,,,,,,,,,,,,,,,,,,,,,,,,,,,,,,,,,,,,,,,,,,,,,,,,,,,,,,,,,,,,,,,,,,,841.0322895277536,None,841.5330252977883,None,841.5330252977883,None,right,0,0.48056624143373483,841.5330252977883,None,,,,,,,,,,,,,842.0230988170588,None,,,,,,,,,,,,,,,,,,,,,,,,,,,,,,,,,829.5408201622799,None,829.5408201622799,None,830.0408041254441,None,840.5428385584555,840.5428385584555,0.009866599183169456,None,840.5428385584555,840.5428385584555,843.5233959154821,None,843.5233959154821,None,None,0.008384795540223422,None,,NENA_034,001,2021_Mar_03_1028,test7,3.2.4,100.16841334204562,
160,11,Borgmästaren i byn sa väldigt många dumma saker som de flesta av invånarna i det lilla samhället ville inte höra.,18,,19,,inc,1,no,163,164,,,,,,,,,,,,,0,36,36,36,,,,,,,,,,,,,,,,,,,,,,,,,,,,,,,,,,,,,,,,,,,,,,,,,,,,,,,,,,,,,,,,,,,,,,,,,,,,,,,,,,,,,,,,,,,,,855.0248846791128,None,855.5256188454632,None,855.5256188454632,None,left,0,8.671619483087852,855.5256188454632,None,,,,,,,,,,,,,864.2070416463803,None,,,,,,,,,,,,,,,,,,,,,,,,,,,,,,,,,843.5333020935768,None,843.5333020935768,None,844.0333995975398,None,854.5354792544285,854.5354792544285,0.009860825922260119,None,854.5354792544285,854.5354792544285,865.7075154707354,None,865.7075154707354,None,None,0.008684363635438785,None,,NENA_034,001,2021_Mar_03_1028,test7,3.2.4,100.16841334204562,
170,99,Fällan var redan färdig och spindeln väntade på bytet. ,4,,0,,cor,1,no,171,199,,,,,,,,,,,,,0,37,37,37,,,,,,,,,,,,,,,,,,,,,,,,,,,,,,,,,,,,,,,,,,,,,,,,,,,,,,,,,,,,,,,,,,,,,,,,,,,,,,,,,,,,,,,,,,,,,871.7079772353909,None,872.2086834976471,None,872.2086834976471,None,left,1,1.836401500791908,872.2086834976471,None,,,,,,,,,,,,,874.0589363344025,None,,,,,,,,,,,,,,,,,,,,,,,,,,,,,,,,,865.7175242845806,None,865.7175242845806,None,866.2176044687603,None,871.2185342845105,871.2185342845105,0.009863391816907097,None,871.2185342845105,871.2185342845105,875.5593655763541,None,875.5593655763541,None,None,0.007928387187348562,None,,NENA_034,001,2021_Mar_03_1028,test7,3.2.4,100.16841334204562,
170,19,Väskan är för färgglad för äldres smak.  ,4,,0,,cor,1,no,171,199,,,,,,,,,,,,,0,38,38,38,,,,,,,,,,,,,,,,,,,,,,,,,,,,,,,,,,,,,,,,,,,,,,,,,,,,,,,,,,,,,,,,,,,,,,,,,,,,,,,,,,,,,,,,,,,,,880.5496240644916,None,881.0504015302995,None,881.0504015302995,None,left,1,0.9706910785798755,881.0504015302995,None,,,,,,,,,,,,,882.0308064411629,None,,,,,,,,,,,,,,,,,,,,,,,,,,,,,,,,,875.5693785597769,None,875.5693785597769,None,876.0694471974348,None,880.0602170361235,880.0602170361235,0.009866919920568762,None,880.0602170361235,880.0602170361235,883.5307744637121,None,883.5307744637121,None,None,0.007990930848791322,None,,NENA_034,001,2021_Mar_03_1028,test7,3.2.4,100.16841334204562,
180,34,Pannkakan som steks på den första smeten då stekpannan har extra mycket smör blir ofta ljus och får mer fett. ,16,,0,,cor,1,no,181,199,,,,,,,,,,,,,0,39,39,39,,,,,,,,,,,,,,,,,,,,,,,,,,,,,,,,,,,,,,,,,,,,,,,,,,,,,,,,,,,,,,,,,,,,,,,,,,,,,,,,,,,,,,,,,,,,,895.0322882448072,None,895.5330625032475,None,895.5330625032475,None,right,0,6.215843303433758,895.5330625032475,None,,,,,,,,,,,,,901.764208476302,None,,,,,,,,,,,,,,,,,,,,,,,,,,,,,,,,,883.540844217534,None,883.540844217534,None,884.0409423629699,None,894.5428719150741,894.5428719150741,0.009863712553851656,None,894.5428719150741,894.5428719150741,903.2645123101956,None,903.2645123101956,None,None,0.007851089638279518,None,,NENA_034,001,2021_Mar_03_1028,test7,3.2.4,100.16841334204562,
150,1,Pojken älskade hunden men katten ville inte vara nära den. ,6,,7,,cor,1,no,155,156,,,,,,,,,,,,,0,40,40,40,,,,,,,,,,,,,,,,,,,,,,,,,,,,,,,,,,,,,,,,,,,,,,,,,,,,,,,,,,,,,,,,,,,,,,,,,,,,,,,,,,,,,,,,,,,,,909.7650289208304,None,910.2658124806358,None,910.2658124806358,None,left,1,0.8108192193139985,910.2658124806358,None,,,,,,,,,,,,,911.0859917596326,None,,,,,,,,,,,,,,,,,,,,,,,,,,,,,,,,,903.2745079738361,None,903.2745079738361,None,903.7745929690664,None,909.2756129118343,909.2756129118343,0.009864354026831279,None,909.2756129118343,909.2756129118343,912.5862054665085,None,912.5862054665085,None,None,0.008145205209984852,None,,NENA_034,001,2021_Mar_03_1028,test7,3.2.4,100.16841334204562,
170,12,Lägenheten är mycket mysigt för sin storlek.  ,4,,0,,inc,1,no,172,199,,,,,,,,,,,,,0,41,41,41,,,,,,,,,,,,,,,,,,,,,,,,,,,,,,,,,,,,,,,,,,,,,,,,,,,,,,,,,,,,,,,,,,,,,,,,,,,,,,,,,,,,,,,,,,,,,917.5865081457505,None,918.0872323692629,None,918.0872323692629,None,left,0,4.3731495896809065,918.0872323692629,None,,,,,,,,,,,,,922.4780567973412,None,,,,,,,,,,,,,,,,,,,,,,,,,,,,,,,,,912.5961093994465,None,912.5961093994465,None,913.096298634111,None,917.0970979100157,917.0970979100157,0.009863071079962538,None,917.0970979100157,917.0970979100157,923.9783478017671,None,923.9783478017671,None,None,0.007787583768731565,None,,NENA_034,001,2021_Mar_03_1028,test7,3.2.4,100.16841334204562,
160,28,Det lilla rådjuret söker en lugn plats som de högljudda arbetarna från den kommunala parkförvaltningen inte kan hitta.,16,,17,,cor,1,no,161,162,,,,,,,,,,,,,0,42,42,42,,,,,,,,,,,,,,,,,,,,,,,,,,,,,,,,,,,,,,,,,,,,,,,,,,,,,,,,,,,,,,,,,,,,,,,,,,,,,,,,,,,,,,,,,,,,,934.4796264828465,None,934.9803731579286,None,934.9803731579286,None,left,1,3.5679153588625923,934.9803731579286,None,,,,,,,,,,,,,938.561289579713,None,,,,,,,,,,,,,,,,,,,,,,,,,,,,,,,,,923.9883649547664,None,923.9883649547664,None,924.4884910042974,None,933.990184494176,933.990184494176,0.009866278446679644,None,933.990184494176,933.990184494176,940.0613384279159,None,940.0613384279159,None,None,0.008085868917078187,None,,NENA_034,001,2021_Mar_03_1028,test7,3.2.4,100.16841334204562,
180,10,Boken som de rekommenderade alla blivande studenter på programmet att läsa var förvånansvärt rolig efter den sega inledningen. ,14,,0,,cor,1,yes,181,199,,,,,,,,,,,,,0,43,43,43,,,,,,,,,,,,,,,,,,,,,,,,,,,,,,,,,,,,,,,,,,,,,,,,,,,,,,,,,,,,,,,,,,,,,,,,,,,,,,,,,,,,,,,,,,,,,950.5626347495145,None,951.0634096494286,None,951.0634096494286,None,right,0,6.588633026516618,951.0634096494286,None,,,,,,,,,,,,,957.664598877037,None,,,,,,,,,,,,,,,,,,,,,,,,,,,,,,,,,940.0713315256617,None,940.0713315256617,None,940.5714380102518,None,950.0731719129572,950.0731719129572,0.009865316236755461,None,950.0731719129572,950.0731719129572,959.1656104806498,None,959.1656104806498,None,space,0.007767698090901831,None,114.79733544762985,NENA_034,001,2021_Mar_03_1028,test7,3.2.4,100.16841334204562,
180,56,Spacklet som målaren hade täckt den stora väggen i skolans matsal med var nu torrt och han började därför måla.,15,,0,,cor,1,no,181,199,,,,,,,,,,,,,0,44,44,44,,,,,,,,,,,,,,,,,,,,,,,,,,,,,,,,,,,,,,,,,,,,,,,,,,,,,,,,,,,,,,,,,,,,,,,,,,,,,,,,,,,,,,,,,,,,,1085.4576643567207,None,1085.9584206539057,None,1085.9584206539057,None,right,0,5.28383467689946,1085.9584206539057,None,,,,,,,,,,,,,1091.2594166697136,None,,,,,,,,,,,,,,,,,,,,,,,,,,,,,,,,,1073.9667216409407,None,1073.9667216409407,None,1074.4662184050276,None,1084.9682461025677,1084.9682461025677,0.009867240657513321,None,1084.9682461025677,1084.9682461025677,1092.759704146035,None,1092.759704146035,None,None,0.007749416098704387,None,,NENA_034,001,2021_Mar_03_1028,test7,3.2.4,100.16841334204562,
160,25,Filosofen med de tjocka glasögonen drog en fullständigt absurd slutsats som de två psykologerna bland deltagarna i seminariet inte kunde förstå.,19,,20,,cor,1,no,161,162,,,,,,,,,,,,,0,45,45,45,,,,,,,,,,,,,,,,,,,,,,,,,,,,,,,,,,,,,,,,,,,,,,,,,,,,,,,,,,,,,,,,,,,,,,,,,,,,,,,,,,,,,,,,,,,,,1104.76129618689,None,1105.2620293910304,None,1105.2620293910304,None,left,1,0.6761114008431832,1105.2620293910304,None,,,,,,,,,,,,,1105.9526162814936,None,,,,,,,,,,,,,,,,,,,,,,,,,,,,,,,,,1092.769722581982,None,1092.769722581982,None,1093.2698050113186,None,1104.271868310635,1104.271868310635,0.009865957709735085,None,1104.271868310635,1104.271868310635,1107.4524595374596,None,1107.4524595374596,None,None,0.007862315424063127,None,,NENA_034,001,2021_Mar_03_1028,test7,3.2.4,100.16841334204562,
170,113,Teet var väldigt het och brände tungan.  ,4,,0,,inc,1,no,174,199,,,,,,,,,,,,,0,46,46,46,,,,,,,,,,,,,,,,,,,,,,,,,,,,,,,,,,,,,,,,,,,,,,,,,,,,,,,,,,,,,,,,,,,,,,,,,,,,,,,,,,,,,,,,,,,,,1112.4527064085123,None,1112.9534367260221,None,1112.9534367260221,None,left,0,5.232565553775203,1112.9534367260221,None,,,,,,,,,,,,,1118.2041790711592,None,,,,,,,,,,,,,,,,,,,,,,,,,,,,,,,,,1107.4624163919561,None,1107.4624163919561,None,1107.9625366682258,None,1111.9632602502643,1111.9632602502643,0.009859542976300872,None,1111.9632602502643,1111.9632602502643,1119.704712552545,None,1119.704712552545,None,None,0.0075637095387719455,None,,NENA_034,001,2021_Mar_03_1028,test7,3.2.4,100.16841334204562,
180,17,Skjortan som reseledaren inför denna speciella dag hade strukit kvällen innan var otroligt skrynkligt på morgonen.  ,14,,0,,inc,1,no,182,199,,,,,,,,,,,,,0,47,47,47,,,,,,,,,,,,,,,,,,,,,,,,,,,,,,,,,,,,,,,,,,,,,,,,,,,,,,,,,,,,,,,,,,,,,,,,,,,,,,,,,,,,,,,,,,,,,1129.2058241297937,None,1129.7065605413009,None,1129.7065605413009,None,left,0,8.343254040801185,1129.7065605413009,None,,,,,,,,,,,,,1138.0678771911935,None,,,,,,,,,,,,,,,,,,,,,,,,,,,,,,,,,1119.714732592175,None,1119.714732592175,None,1120.2148384352922,None,1128.716422874686,1128.716422874686,0.009864674762866343,None,1128.716422874686,1128.716422874686,1139.5683343372393,None,1139.5683343372393,None,None,0.008300762518956617,None,,NENA_034,001,2021_Mar_03_1028,test7,3.2.4,100.16841334204562,
170,88,Kajaken var för smal för det öppna havet. ,4,,0,,cor,1,no,171,199,,,,,,,,,,,,,0,48,48,48,,,,,,,,,,,,,,,,,,,,,,,,,,,,,,,,,,,,,,,,,,,,,,,,,,,,,,,,,,,,,,,,,,,,,,,,,,,,,,,,,,,,,,,,,,,,,1145.0687640282222,None,1145.5694892139454,None,1145.5694892139454,None,left,1,3.9281700494766483,1145.5694892139454,None,,,,,,,,,,,,,1149.5100057026993,None,,,,,,,,,,,,,,,,,,,,,,,,,,,,,,,,,1139.5784133924262,None,1139.5784133924262,None,1140.078482350821,None,1144.579328775023,1144.579328775023,0.009863071079962538,None,1144.579328775023,1144.579328775023,1151.0104881869456,None,1151.0104881869456,None,None,0.007942178866869654,None,,NENA_034,001,2021_Mar_03_1028,test7,3.2.4,100.16841334204562,
130,52,Skådespelare spelar ofta roller skrivna för dem.,3,,4,,cor,1,no,135,136,,,,,,,,,,,,,0,49,49,49,,,,,,,,,,,,,,,,,,,,,,,,,,,,,,,,,,,,,,,,,,,,,,,,,,,,,,,,,,,,,,,,,,,,,,,,,,,,,,,,,,,,,,,,,,,,,1156.0107716219845,None,1156.5115657661026,None,1156.5115657661026,None,left,1,5.386100296938821,1156.5115657661026,None,,,,,,,,,,,,,1161.9122114732654,None,,,,,,,,,,,,,,,,,,,,,,,,,,,,,,,,,1151.0205688458163,None,1151.0205688458163,None,1151.5206246540056,None,1155.521398591709,1155.521398591709,0.009868523603472568,None,1155.521398591709,1155.521398591709,1163.4128216107274,None,1163.4128216107274,None,None,0.00775358567625517,None,,NENA_034,001,2021_Mar_03_1028,test7,3.2.4,100.16841334204562,
170,75,Mattan är redan lagd och möblerna är klara. ,4,,0,,cor,1,no,171,199,,,,,,,,,,,,,0,50,50,50,,,,,,,,,,,,,,,,,,,,,,,,,,,,,,,,,,,,,,,,,,,,,,,,,,,,,,,,,,,,,,,,,,,,,,,,,,,,,,,,,,,,,,,,,,,,,1168.913195493521,None,1169.4138841152571,None,1169.4138841152571,None,left,1,4.827438513167181,1169.4138841152571,None,,,,,,,,,,,,,1174.2546890104695,None,,,,,,,,,,,,,,,,,,,,,,,,,,,,,,,,,1163.4228191987868,None,1163.4228191987868,None,1163.922826896468,None,1168.4236669059364,1168.4236669059364,0.009866599183624203,None,1168.4236669059364,1168.4236669059364,1175.7550951593776,None,1175.7550951593776,None,None,0.008641064178846136,None,,NENA_034,001,2021_Mar_03_1028,test7,3.2.4,100.16841334204562,
170,65,Taket var helt förstörd och byggnaden stängdes.  ,4,,0,,inc,1,no,174,199,,,,,,,,,,,,,0,51,51,51,,,,,,,,,,,,,,,,,,,,,,,,,,,,,,,,,,,,,,,,,,,,,,,,,,,,,,,,,,,,,,,,,,,,,,,,,,,,,,,,,,,,,,,,,,,,,1180.7553821225201,None,1181.256179153268,None,1181.256179153268,None,left,0,6.584890029001144,1181.256179153268,None,,,,,,,,,,,,,1187.8572875552227,None,,,,,,,,,,,,,,,,,,,,,,,,,,,,,,,,,1175.7651469519433,None,1175.7651469519433,None,1176.2652399655917,None,1180.2659805466765,1180.2659805466765,0.009866599183624203,None,1180.2659805466765,1180.2659805466765,1189.3576391788883,None,1189.3576391788883,None,None,0.00859102925096522,None,,NENA_034,001,2021_Mar_03_1028,test7,3.2.4,100.16841334204562,
170,17,Rödvinet är väldigt syrlig men passar bra med huvudrätten. ,4,,0,,inc,1,no,174,199,,,,,,,,,,,,,0,52,52,52,,,,,,,,,,,,,,,,,,,,,,,,,,,,,,,,,,,,,,,,,,,,,,,,,,,,,,,,,,,,,,,,,,,,,,,,,,,,,,,,,,,,,,,,,,,,,1195.3580922836518,None,1195.8588527504135,None,1195.8588527504135,None,left,0,7.534003544781626,1195.8588527504135,None,,,,,,,,,,,,,1203.410234131391,None,,,,,,,,,,,,,,,,,,,,,,,,,,,,,,,,,1189.3676803871422,None,1189.3676803871422,None,1189.8677326672278,None,1194.8686416350902,1194.8686416350902,0.009866278447589139,None,1194.8686416350902,1194.8686416350902,1204.9105107026635,None,1204.9105107026635,None,None,0.007604122363773058,None,,NENA_034,001,2021_Mar_03_1028,test7,3.2.4,100.16841334204562,
160,4,Det nya lagförslaget innebär stora praktiska förändringar som de mer erfarna medlemmarna i partiet inte kan ställa sig bakom.,15,,16,,cor,1,no,161,162,,,,,,,,,,,,,0,53,53,53,,,,,,,,,,,,,,,,,,,,,,,,,,,,,,,,,,,,,,,,,,,,,,,,,,,,,,,,,,,,,,,,,,,,,,,,,,,,,,,,,,,,,,,,,,,,,1215.9119157540108,None,1216.4126572973055,None,1216.4126572973055,None,left,1,7.9639459853706285,1216.4126572973055,None,,,,,,,,,,,,,1224.394051680949,None,,,,,,,,,,,,,,,,,,,,,,,,,,,,,,,,,1204.9205589671255,None,1204.9205589671255,None,1205.4205406851324,None,1215.4224997450146,1215.4224997450146,0.009865957709735085,None,1215.4224997450146,1215.4224997450146,1225.8944613579606,None,1225.8944613579606,None,None,0.007657364660190069,None,,NENA_034,001,2021_Mar_03_1028,test7,3.2.4,100.16841334204562,
180,33,Brandbilen som brandmännen i Storstockholms brandförsvar använder när de rycker ut är mestadels rött med undantag för dess ränder.,14,,0,,inc,1,no,182,199,,,,,,,,,,,,,0,54,54,54,,,,,,,,,,,,,,,,,,,,,,,,,,,,,,,,,,,,,,,,,,,,,,,,,,,,,,,,,,,,,,,,,,,,,,,,,,,,,,,,,,,,,,,,,,,,,1236.8958057900672,None,1237.396555672518,None,1237.396555672518,None,left,0,8.627879012978156,1237.396555672518,None,,,,,,,,,,,,,1246.0379771519993,None,,,,,,,,,,,,,,,,,,,,,,,,,,,,,,,,,1225.9044230235086,None,1225.9044230235086,None,1226.4045301495726,None,1236.406408063065,1236.406408063065,0.009864354026831279,None,1236.406408063065,1236.406408063065,1247.5384949172849,None,1247.5384949172849,None,None,0.0077234364243849996,None,,NENA_034,001,2021_Mar_03_1028,test7,3.2.4,100.16841334204562,
130,78,Poliser kontrollerar ofta bilar som kör för fort.,3,,4,,cor,1,no,137,138,,,,,,,,,,,,,0,55,55,55,,,,,,,,,,,,,,,,,,,,,,,,,,,,,,,,,,,,,,,,,,,,,,,,,,,,,,,,,,,,,,,,,,,,,,,,,,,,,,,,,,,,,,,,,,,,,1253.0388290287256,None,1253.5395731379149,None,1253.5395731379149,None,left,1,5.668720664617467,1253.5395731379149,None,,,,,,,,,,,,,1259.2204452338847,None,,,,,,,,,,,,,,,,,,,,,,,,,,,,,,,,,1247.5484774307197,None,1247.5484774307197,None,1248.0485463891137,None,1252.5494184722538,1252.5494184722538,0.009864995499810902,None,1252.5494184722538,1252.5494184722538,1260.7208757587832,None,1260.7208757587832,None,None,0.0075393335482658586,None,,NENA_034,001,2021_Mar_03_1028,test7,3.2.4,100.16841334204562,
180,21,Krukan som han hade använt för att sätta den nyligen inköpta rosen i var nu trasig och blomman låg på golvet.,16,,0,,cor,1,no,181,199,,,,,,,,,,,,,0,56,56,56,,,,,,,,,,,,,,,,,,,,,,,,,,,,,,,,,,,,,,,,,,,,,,,,,,,,,,,,,,,,,,,,,,,,,,,,,,,,,,,,,,,,,,,,,,,,,1272.7224668374274,None,1273.2232205687178,None,1273.2232205687178,None,left,1,10.344705053720645,1273.2232205687178,None,,,,,,,,,,,,,1283.5849467994003,None,,,,,,,,,,,,,,,,,,,,,,,,,,,,,,,,,1260.730908948619,None,1260.730908948619,None,1261.231004848898,None,1272.2329963031889,1272.2329963031889,0.009864354026831279,None,1272.2329963031889,1272.2329963031889,1285.0853895122946,None,1285.0853895122946,None,None,0.007984516114447615,None,,NENA_034,001,2021_Mar_03_1028,test7,3.2.4,100.16841334204562,
130,14,Skräddare syr ofta kläder åt rika människor.,3,,4,,cor,1,no,131,132,,,,,,,,,,,,,0,57,57,57,,,,,,,,,,,,,,,,,,,,,,,,,,,,,,,,,,,,,,,,,,,,,,,,,,,,,,,,,,,,,,,,,,,,,,,,,,,,,,,,,,,,,,,,,,,,,1290.0856748717533,None,1290.5864369421988,None,1290.5864369421988,None,left,1,8.589273858482557,1290.5864369421988,None,,,,,,,,,,,,,1299.1877701805943,None,,,,,,,,,,,,,,,,,,,,,,,,,,,,,,,,,1285.0953912699315,None,1285.0953912699315,None,1285.595405703084,None,1289.596298634111,1289.596298634111,0.009863391816907097,None,1289.596298634111,1289.596298634111,1300.6882347035844,None,1300.6882347035844,None,None,0.008149374787535635,None,,NENA_034,001,2021_Mar_03_1028,test7,3.2.4,100.16841334204562,
160,51,Dagens utvecklade teknologi medför utmaningar för skolväsendet som vår nuvarande kunskap om påverkan på koncentration kan inte hantera.,16,,17,,inc,1,no,163,164,,,,,,,,,,,,,0,58,58,58,,,,,,,,,,,,,,,,,,,,,,,,,,,,,,,,,,,,,,,,,,,,,,,,,,,,,,,,,,,,,,,,,,,,,,,,,,,,,,,,,,,,,,,,,,,,,1311.1895964554742,None,1311.6904104852683,None,1311.6904104852683,None,left,0,1.4852582989024086,1311.6904104852683,None,,,,,,,,,,,,,1313.190752711348,None,,,,,,,,,,,,,,,,,,,,,,,,,,,,,,,,,1300.6982159340723,None,1300.6982159340723,None,1301.1983974710556,None,1310.7001573534344,1310.7001573534344,0.009867882130492944,None,1310.7001573534344,1310.7001573534344,1314.690879498573,None,1314.690879498573,None,None,0.008187542457562813,None,,NENA_034,001,2021_Mar_03_1028,test7,3.2.4,100.16841334204562,
150,60,Hästarna hade stamtavlor som ägarna inte har vetat om.  ,6,,7,,cor,1,no,151,152,,,,,,,,,,,,,0,59,59,59,,,,,,,,,,,,,,,,,,,,,,,,,,,,,,,,,,,,,,,,,,,,,,,,,,,,,,,,,,,,,,,,,,,,,,,,,,,,,,,,,,,,,,,,,,,,,1320.691393222577,None,1321.1921347658717,None,1321.1921347658717,None,left,1,6.287202412453553,1321.1921347658717,None,,,,,,,,,,,,,1327.4930884444339,None,,,,,,,,,,,,,,,,,,,,,,,,,,,,,,,,,1314.7009098017788,None,1314.7009098017788,None,1315.2010172485798,None,1320.2019262164422,1320.2019262164422,0.009864995499810902,None,1320.2019262164422,1320.2019262164422,1328.9935552125808,None,1328.9935552125808,None,None,0.008236615175519546,None,,NENA_034,001,2021_Mar_03_1028,test7,3.2.4,100.16841334204562,
170,116,Pastan blir något klibbigt vid överkokning.  ,4,,0,,inc,1,no,172,199,,,,,,,,,,,,,0,60,60,60,,,,,,,,,,,,,,,,,,,,,,,,,,,,,,,,,,,,,,,,,,,,,,,,,,,,,,,,,,,,,,,,,,,,,,,,,,,,,,,,,,,,,,,,,,,,,1333.493765840385,None,1333.9945324011442,None,1333.9945324011442,None,left,0,2.316724944528687,1333.9945324011442,None,,,,,,,,,,,,,1336.3247055155816,None,,,,,,,,,,,,,,,,,,,,,,,,,,,,,,,,,1329.0035781388415,None,1329.0035781388415,None,1329.5036519082878,None,1333.0043174369803,1333.0043174369803,0.009863071079962538,None,1333.0043174369803,1333.0043174369803,1337.8252239223411,None,1337.8252239223411,None,None,0.008655176595311787,None,,NENA_034,001,2021_Mar_03_1028,test7,3.2.4,100.16841334204562,
180,37,Tavlan som för en liten stund sedan auktionerades ut till en beslutsam konstkännare var otroligt vacker men kostade en förmögenhet. ,16,,0,,cor,1,no,181,199,,,,,,,,,,,,,0,61,61,61,,,,,,,,,,,,,,,,,,,,,,,,,,,,,,,,,,,,,,,,,,,,,,,,,,,,,,,,,,,,,,,,,,,,,,,,,,,,,,,,,,,,,,,,,,,,,1349.3267235910198,None,1349.8274330606428,None,1349.8274330606428,None,left,1,8.851555669310073,1349.8274330606428,None,,,,,,,,,,,,,1358.6888183481933,None,,,,,,,,,,,,,,,,,,,,,,,,,,,,,,,,,1337.8352574329128,None,1337.8352574329128,None,1338.3353084300516,None,1348.8372399065756,1348.8372399065756,0.009863712552942161,None,1348.8372399065756,1348.8372399065756,1360.1893999400863,None,1360.1893999400863,None,None,0.007697456750065612,None,,NENA_034,001,2021_Mar_03_1028,test7,3.2.4,100.16841334204562,
170,30,Spelet är särskilt svår för nybörjare.  ,4,,0,,inc,1,no,174,199,,,,,,,,,,,,,0,62,62,62,,,,,,,,,,,,,,,,,,,,,,,,,,,,,,,,,,,,,,,,,,,,,,,,,,,,,,,,,,,,,,,,,,,,,,,,,,,,,,,,,,,,,,,,,,,,,1364.6895467412833,None,1365.1903145849892,None,1365.1903145849892,None,right,1,2.1205633291447157,1365.1903145849892,None,,,,,,,,,,,,,1367.320838713692,None,,,,,,,,,,,,,,,,,,,,,,,,,,,,,,,,,1360.1994116405622,None,1360.1994116405622,None,1360.6994376202365,None,1364.2000694715734,1364.2000694715734,0.009863391816907097,None,1364.2000694715734,1364.2000694715734,1368.8209715949151,None,1368.8209715949151,None,None,0.00790753930232313,None,,NENA_034,001,2021_Mar_03_1028,test7,3.2.4,100.16841334204562,
150,104,Saxofonisten spelade toner som publiken orkade inte höra.  ,6,,7,,inc,1,no,153,154,,,,,,,,,,,,,0,63,63,63,,,,,,,,,,,,,,,,,,,,,,,,,,,,,,,,,,,,,,,,,,,,,,,,,,,,,,,,,,,,,,,,,,,,,,,,,,,,,,,,,,,,,,,,,,,,,1374.3213259127688,None,1374.822090228371,None,1374.822090228371,None,left,0,0.5687239361323009,1374.822090228371,None,,,,,,,,,,,,,1375.402194544782,None,,,,,,,,,,,,,,,,,,,,,,,,,,,,,,,,,1368.8310265948476,None,1368.8310265948476,None,1369.3310692528312,None,1373.83195416544,1373.83195416544,0.009866919919659267,None,1373.83195416544,1373.83195416544,1376.9024839455233,None,1376.9024839455233,None,None,0.00805604040306207,None,,NENA_034,001,2021_Mar_03_1028,test7,3.2.4,100.16841334204562,
170,97,Staketet är ganska nymålad och ser bra ut. ,4,,0,,inc,1,no,174,199,,,,,,,,,,,,,0,64,64,64,,,,,,,,,,,,,,,,,,,,,,,,,,,,,,,,,,,,,,,,,,,,,,,,,,,,,,,,,,,,,,,,,,,,,,,,,,,,,,,,,,,,,,,,,,,,,1382.402855262424,None,1382.9036166913957,None,1382.9036166913957,None,right,1,7.487178870377647,1382.9036166913957,None,,,,,,,,,,,,,1390.4051228710296,None,,,,,,,,,,,,,,,,,,,,,,,,,,,,,,,,,1376.9124924386324,None,1376.9124924386324,None,1377.4124754395862,None,1381.9134151981734,1381.9134151981734,0.009863071079053043,None,1381.9134151981734,1381.9134151981734,1391.905224961528,None,1391.905224961528,None,None,0.008147771103722334,None,,NENA_034,001,2021_Mar_03_1028,test7,3.2.4,100.16841334204562,
170,66,Templet är helt renoverat och har öppnat igen för besökare.,4,,0,,cor,1,no,173,199,,,,,,,,,,,,,0,65,65,65,,,,,,,,,,,,,,,,,,,,,,,,,,,,,,,,,,,,,,,,,,,,,,,,,,,,,,,,,,,,,,,,,,,,,,,,,,,,,,,,,,,,,,,,,,,,,1398.4058240014983,None,1398.9065421310133,None,1398.9065421310133,None,left,1,13.451753499718507,1398.9065421310133,None,,,,,,,,,,,,,1412.368914582038,None,,,,,,,,,,,,,,,,,,,,,,,,,,,,,,,,,1391.9152267191648,None,1391.9152267191648,None,1392.415351165012,None,1397.916341600002,1397.916341600002,0.00986563697370002,None,1397.916341600002,1397.916341600002,1413.8693758976624,None,1413.8693758976624,None,None,0.00832802514105424,None,,NENA_034,001,2021_Mar_03_1028,test7,3.2.4,100.16841334204562,
130,47,Vinodlare skördar ofta druvor fulla med skadedjur.,3,,4,,cor,1,no,135,136,,,,,,,,,,,,,0,66,66,66,,,,,,,,,,,,,,,,,,,,,,,,,,,,,,,,,,,,,,,,,,,,,,,,,,,,,,,,,,,,,,,,,,,,,,,,,,,,,,,,,,,,,,,,,,,,,1418.8696269382926,None,1419.3703636705368,None,1419.3703636705368,None,right,0,1.9237477315891738,1419.3703636705368,None,,,,,,,,,,,,,1421.3107095273563,None,,,,,,,,,,,,,,,,,,,,,,,,,,,,,,,,,1413.8793779760363,None,1413.8793779760363,None,1414.3794366708553,None,1418.3801814215185,1418.3801814215185,0.009866599183624203,None,1418.3801814215185,1418.3801814215185,1422.81099187189,None,1422.81099187189,None,None,0.007561143644124968,None,,NENA_034,001,2021_Mar_03_1028,test7,3.2.4,100.16841334204562,
170,82,Silvret är nästan rent och väger ganska mycket. ,4,,0,,cor,1,no,173,199,,,,,,,,,,,,,0,67,67,67,,,,,,,,,,,,,,,,,,,,,,,,,,,,,,,,,,,,,,,,,,,,,,,,,,,,,,,,,,,,,,,,,,,,,,,,,,,,,,,,,,,,,,,,,,,,,1428.3013866731326,None,1428.8021237261137,None,1428.8021237261137,None,left,1,5.963833406782214,1428.8021237261137,None,,,,,,,,,,,,,1434.7832121269275,None,,,,,,,,,,,,,,,,,,,,,,,,,,,,,,,,,1422.821021854359,None,1422.821021854359,None,1423.321081832125,None,1427.8119187047887,1427.8119187047887,0.009866278447589139,None,1427.8119187047887,1427.8119187047887,1436.2835236585024,None,1436.2835236585024,None,None,0.008636253127406235,None,,NENA_034,001,2021_Mar_03_1028,test7,3.2.4,100.16841334204562,
140,34,Matematiker löser gärna problem som intressera allmänheten.,3,,4,,inc,1,no,133,134,,,,,,,,,,,,,0,68,68,68,,,,,,,,,,,,,,,,,,,,,,,,,,,,,,,,,,,,,,,,,,,,,,,,,,,,,,,,,,,,,,,,,,,,,,,,,,,,,,,,,,,,,,,,,,,,,1441.283781755341,None,1441.7845297133708,None,1441.7845297133708,None,left,0,1.8133655481296955,1441.7845297133708,None,,,,,,,,,,,,,1443.6145880040622,None,,,,,,,,,,,,,,,,,,,,,,,,,,,,,,,,,1436.2935404907657,None,1436.2935404907657,None,1436.793635108098,None,1440.794402310331,1440.794402310331,0.009865636972790526,None,1440.794402310331,1440.794402310331,1445.1151577286964,None,1445.1151577286964,None,None,0.007736265893072414,None,,NENA_034,001,2021_Mar_03_1028,test7,3.2.4,100.16841334204562,
180,58,Vattenkannan som grannen hade fyllt med vatten och extra dyr växtnäring var helt vit och stod på köksbordet. ,14,,0,,cor,1,no,181,199,,,,,,,,,,,,,0,69,69,69,,,,,,,,,,,,,,,,,,,,,,,,,,,,,,,,,,,,,,,,,,,,,,,,,,,,,,,,,,,,,,,,,,,,,,,,,,,,,,,,,,,,,,,,,,,,,1455.6164312779883,None,1456.1172058571656,None,1456.1172058571656,None,right,0,10.776367926071543,1456.1172058571656,None,,,,,,,,,,,,,1466.9089588821944,None,,,,,,,,,,,,,,,,,,,,,,,,,,,,,,,,,1445.1251851452716,None,1445.1251851452716,None,1445.625240311987,None,1455.1269998736298,1455.1269998736298,0.009862429606982914,None,1455.1269998736298,1455.1269998736298,1468.4094923635794,None,1468.4094923635794,None,None,0.008053153772380028,None,,NENA_034,001,2021_Mar_03_1028,test7,3.2.4,100.16841334204562,
130,9,Meteorologer förutspår ofta väder utifrån datormodeller.,3,,4,,cor,1,no,131,132,,,,,,,,,,,,,0,70,70,70,,,,,,,,,,,,,,,,,,,,,,,,,,,,,,,,,,,,,,,,,,,,,,,,,,,,,,,,,,,,,,,,,,,,,,,,,,,,,,,,,,,,,,,,,,,,,1472.9096317878311,None,1473.4104230453186,None,1473.4104230453186,None,left,1,4.907095401853439,1473.4104230453186,None,,,,,,,,,,,,,1478.3312209612996,None,,,,,,,,,,,,,,,,,,,,,,,,,,,,,,,,,1468.4194986115308,None,1468.4194986115308,None,1468.9195919459162,None,1472.4202193069395,1472.4202193069395,0.009866599183624203,None,1472.4202193069395,1472.4202193069395,1479.8316014512693,None,1479.8316014512693,None,None,0.007676288126276631,None,,NENA_034,001,2021_Mar_03_1028,test7,3.2.4,100.16841334204562,
150,31,Lakrits innehåller sötningsmedel som barnen inte fick äta.  ,6,,7,,cor,1,no,151,152,,,,,,,,,,,,,0,71,71,71,,,,,,,,,,,,,,,,,,,,,,,,,,,,,,,,,,,,,,,,,,,,,,,,,,,,,,,,,,,,,,,,,,,,,,,,,,,,,,,,,,,,,,,,,,,,,1485.3319878427956,None,1485.832731951985,None,1485.832731951985,None,left,1,5.420720939168859,1485.832731951985,None,,,,,,,,,,,,,1491.263548400133,None,,,,,,,,,,,,,,,,,,,,,,,,,,,,,,,,,1479.8416214909003,None,1479.8416214909003,None,1480.34170263729,None,1484.842528534342,1484.842528534342,0.009866278447589139,None,1484.842528534342,1484.842528534342,1492.763973793244,None,1492.763973793244,None,None,0.008603858719652635,None,,NENA_034,001,2021_Mar_03_1028,test7,3.2.4,100.16841334204562,
170,114,Havet är ganska förorenat till följd av ansvarslös båttrafik. ,4,,0,,cor,1,no,173,199,,,,,,,,,,,,,0,72,72,72,,,,,,,,,,,,,,,,,,,,,,,,,,,,,,,,,,,,,,,,,,,,,,,,,,,,,,,,,,,,,,,,,,,,,,,,,,,,,,,,,,,,,,,,,,,,,1498.7644538398918,None,1499.2652005149748,None,1499.2652005149748,None,left,1,5.979975765133531,1499.2652005149748,None,,,,,,,,,,,,,1505.256306165009,None,,,,,,,,,,,,,,,,,,,,,,,,,,,,,,,,,1492.7740345664379,None,1492.7740345664379,None,1493.2740797903152,None,1498.2750108890114,1498.2750108890114,0.009864354026831279,None,1498.2750108890114,1498.2750108890114,1506.7565974901709,None,1506.7565974901709,None,None,0.008630800603896205,None,,NENA_034,001,2021_Mar_03_1028,test7,3.2.4,100.16841334204562,
150,88,Fabriken använde kemikalier som miljökontoret har inte haft rätt att kontrollera. ,6,,7,,inc,1,no,153,154,,,,,,,,,,,,,0,73,73,73,,,,,,,,,,,,,,,,,,,,,,,,,,,,,,,,,,,,,,,,,,,,,,,,,,,,,,,,,,,,,,,,,,,,,,,,,,,,,,,,,,,,,,,,,,,,,1513.7572555456982,None,1514.2580259552988,None,1514.2580259552988,None,right,1,4.531136479247834,1514.2580259552988,None,,,,,,,,,,,,,1518.7987290486753,None,,,,,,,,,,,,,,,,,,,,,,,,,,,,,,,,,1506.7666011722285,None,1506.7666011722285,None,1507.2666919407202,None,1513.2678459514364,1513.2678459514364,0.009863712553851656,None,1513.2678459514364,1513.2678459514364,1520.2991169155903,None,1520.2991169155903,None,None,0.0084909593933844,None,,NENA_034,001,2021_Mar_03_1028,test7,3.2.4,100.16841334204562,
170,61,Jordskredet var ganska farligt för de närliggande husen. ,4,,0,,cor,1,no,173,199,,,,,,,,,,,,,0,74,74,74,,,,,,,,,,,,,,,,,,,,,,,,,,,,,,,,,,,,,,,,,,,,,,,,,,,,,,,,,,,,,,,,,,,,,,,,,,,,,,,,,,,,,,,,,,,,,1525.7994747615485,None,1526.300227209892,None,1526.300227209892,None,left,1,7.432596536940764,1526.300227209892,None,,,,,,,,,,,,,1533.7516115416465,None,,,,,,,,,,,,,,,,,,,,,,,,,,,,,,,,,1520.3091068059693,None,1520.3091068059693,None,1520.8092094417198,None,1525.3100414327691,1525.3100414327691,0.009866278447589139,None,1525.3100414327691,1525.3100414327691,1535.2518740005044,None,1535.2518740005044,None,None,0.008651007017761003,None,,NENA_034,001,2021_Mar_03_1028,test7,3.2.4,100.16841334204562,
140,42,Troende ber ofta böner i svåra tid.,3,,4,,inc,1,no,135,136,,,,,,,,,,,,,0,75,75,75,,,,,,,,,,,,,,,,,,,,,,,,,,,,,,,,,,,,,,,,,,,,,,,,,,,,,,,,,,,,,,,,,,,,,,,,,,,,,,,,,,,,,,,,,,,,,1540.2521641710146,None,1540.7529025069425,None,1540.7529025069425,None,left,0,5.443658746394249,1540.7529025069425,None,,,,,,,,,,,,,1546.2139410139516,None,,,,,,,,,,,,,,,,,,,,,,,,,,,,,,,,,1535.2619283589638,None,1535.2619283589638,None,1535.7618940401344,None,1539.7627282763415,1539.7627282763415,0.009866919919659267,None,1539.7627282763415,1539.7627282763415,1547.7142403575317,None,1547.7142403575317,None,None,0.008327062930220563,None,,NENA_034,001,2021_Mar_03_1028,test7,3.2.4,100.16841334204562,
170,100,Olyckan var väldigt hemskt och hela landet sörjde.,4,,0,,inc,1,no,172,199,,,,,,,,,,,,,0,76,76,76,,,,,,,,,,,,,,,,,,,,,,,,,,,,,,,,,,,,,,,,,,,,,,,,,,,,,,,,,,,,,,,,,,,,,,,,,,,,,,,,,,,,,,,,,,,,,1553.214586656968,None,1553.7153609154084,None,1553.7153609154084,None,left,0,10.865019234581268,1553.7153609154084,None,,,,,,,,,,,,,1564.5972537880607,None,,,,,,,,,,,,,,,,,,,,,,,,,,,,,,,,,1547.7241907972939,None,1547.7241907972939,None,1548.2243024136724,None,1552.7251231789369,1552.7251231789369,0.009867882131402439,None,1552.7251231789369,1552.7251231789369,1566.0976320328746,None,1566.0976320328746,None,None,0.007915236982626084,None,,NENA_034,001,2021_Mar_03_1028,test7,3.2.4,100.16841334204562,
170,96,Sagan är ganska komisk men kan inte visas på teve.,4,,0,,cor,1,no,171,199,,,,,,,,,,,,,0,77,77,77,,,,,,,,,,,,,,,,,,,,,,,,,,,,,,,,,,,,,,,,,,,,,,,,,,,,,,,,,,,,,,,,,,,,,,,,,,,,,,,,,,,,,,,,,,,,,1572.598182641601,None,1573.098969088037,None,1573.098969088037,None,right,0,6.081552121961977,1573.098969088037,None,,,,,,,,,,,,,1579.1898068587625,None,,,,,,,,,,,,,,,,,,,,,,,,,,,,,,,,,1566.1076530347145,None,1566.1076530347145,None,1566.6076985793288,None,1572.1087425773503,1572.1087425773503,0.009863712552942161,None,1572.1087425773503,1572.1087425773503,1580.69033520836,None,1580.69033520836,None,None,0.007257726707393886,None,,NENA_034,001,2021_Mar_03_1028,test7,3.2.4,100.16841334204562,
170,24,Spriten är ganska dyr att importera.  ,4,,0,,cor,1,no,171,199,,,,,,,,,,,,,0,78,78,78,,,,,,,,,,,,,,,,,,,,,,,,,,,,,,,,,,,,,,,,,,,,,,,,,,,,,,,,,,,,,,,,,,,,,,,,,,,,,,,,,,,,,,,,,,,,,1585.190520177226,None,1585.6913123969234,None,1585.6913123969234,None,left,1,1.768833820531654,1585.6913123969234,None,,,,,,,,,,,,,1587.4717527171215,None,,,,,,,,,,,,,,,,,,,,,,,,,,,,,,,,,1580.7003427392583,None,1580.7003427392583,None,1581.20045307269,None,1584.7011070548606,1584.7011070548606,0.009864995499810902,None,1584.7011070548606,1584.7011070548606,1588.9718785421364,None,1588.9718785421364,None,None,0.008162524993167608,None,,NENA_034,001,2021_Mar_03_1028,test7,3.2.4,100.16841334204562,
160,22,Kassörskan i snabbköpet såg inbrottstjuvarna tvärsöver gatan som de boende i det drabbade huset inte hade lagt märke till.,15,,16,,cor,1,no,161,162,,,,,,,,,,,,,0,79,79,79,,,,,,,,,,,,,,,,,,,,,,,,,,,,,,,,,,,,,,,,,,,,,,,,,,,,,,,,,,,,,,,,,,,,,,,,,,,,,,,,,,,,,,,,,,,,,1599.9732399732893,None,1600.4740305893029,None,1600.4740305893029,None,left,1,5.633776719773778,1600.4740305893029,None,,,,,,,,,,,,,1606.1250597372145,None,,,,,,,,,,,,,,,,,,,,,,,,,,,,,,,,,1588.981872922829,None,1588.981872922829,None,1589.4819287310183,None,1599.4838865079537,1599.4838865079537,0.009866919920568762,None,1599.4838865079537,1599.4838865079537,1607.6253090458658,None,1607.6253090458658,None,None,0.0077664151449425844,None,,NENA_034,001,2021_Mar_03_1028,test7,3.2.4,100.16841334204562,
180,4,Rummet som hade lånats ut till ett yngre par på genomresa var fruktansvärt stökig när de åkte. ,14,,0,,inc,1,no,182,199,,,,,,,,,,,,,0,80,80,80,,,,,,,,,,,,,,,,,,,,,,,,,,,,,,,,,,,,,,,,,,,,,,,,,,,,,,,,,,,,,,,,,,,,,,,,,,,,,,,,,,,,,,,,,,,,,1617.6165307063711,None,1618.1173097758629,None,1618.1173097758629,None,left,0,15.502279796602124,1618.1173097758629,None,,,,,,,,,,,,,1633.6298483364353,None,,,,,,,,,,,,,,,,,,,,,,,,,,,,,,,,,1607.6353932328402,None,1607.6353932328402,None,1608.1354423055582,None,1617.1271082826406,1617.1271082826406,0.009865316236755461,None,1617.1271082826406,1617.1271082826406,1635.1304664923146,None,1635.1304664923146,None,None,0.007701305590671836,None,,NENA_034,001,2021_Mar_03_1028,test7,3.2.4,100.16841334204562,
150,33,Barn berättar saker men lärare kan inte veta om dem. ,6,,7,,cor,1,no,155,156,,,,,,,,,,,,,0,81,81,81,,,,,,,,,,,,,,,,,,,,,,,,,,,,,,,,,,,,,,,,,,,,,,,,,,,,,,,,,,,,,,,,,,,,,,,,,,,,,,,,,,,,,,,,,,,,,1641.6310106863066,None,1642.1317788507495,None,1642.1317788507495,None,right,0,1.3836197191494648,1642.1317788507495,None,,,,,,,,,,,,,1643.53171701271,None,,,,,,,,,,,,,,,,,,,,,,,,,,,,,,,,,1635.1404894185753,None,1635.1404894185753,None,1635.6405336802427,None,1641.141609110463,1641.141609110463,0.009864674762866343,None,1641.141609110463,1641.141609110463,1645.0322838507136,None,1645.0322838507136,None,None,0.008093245861346077,None,,NENA_034,001,2021_Mar_03_1028,test7,3.2.4,100.16841334204562,
170,89,Seglet är för bred för den starka vinden. ,4,,0,,inc,1,no,174,199,,,,,,,,,,,,,0,82,82,82,,,,,,,,,,,,,,,,,,,,,,,,,,,,,,,,,,,,,,,,,,,,,,,,,,,,,,,,,,,,,,,,,,,,,,,,,,,,,,,,,,,,,,,,,,,,,1650.532659978665,None,1651.0334108233246,None,1651.0334108233246,None,left,0,9.889880820649523,1651.0334108233246,None,,,,,,,,,,,,,1660.9352397282464,None,,,,,,,,,,,,,,,,,,,,,,,,,,,,,,,,,1645.0423131917087,None,1645.0423131917087,None,1645.5422051034348,None,1650.0432471770355,1650.0432471770355,0.00986563697370002,None,1650.0432471770355,1650.0432471770355,1662.4355300911984,None,1662.4355300911984,None,None,0.007571086483039835,None,,NENA_034,001,2021_Mar_03_1028,test7,3.2.4,100.16841334204562,
160,55,Meteorologer i hela Europa förutspådde det extrema vädret som invånarna i de södra delarna av kontinenten inte hade mått bra av.,17,,18,,cor,1,no,161,162,,,,,,,,,,,,,0,83,83,83,,,,,,,,,,,,,,,,,,,,,,,,,,,,,,,,,,,,,,,,,,,,,,,,,,,,,,,,,,,,,,,,,,,,,,,,,,,,,,,,,,,,,,,,,,,,,1674.4370839643825,None,1674.937699458147,None,1674.937699458147,None,right,0,7.1692242212666315,1674.937699458147,None,,,,,,,,,,,,,1682.1190796010806,None,,,,,,,,,,,,,,,,,,,,,,,,,,,,,,,,,1662.4455225474703,None,1662.4455225474703,None,1662.9456245417477,None,1673.9476499941302,1673.9476499941302,0.009864354026831279,None,1673.9476499941302,1673.9476499941302,1683.6194655435747,None,1683.6194655435747,None,None,0.007586802581499796,None,,NENA_034,001,2021_Mar_03_1028,test7,3.2.4,100.16841334204562,
150,97,Mannen köpte bilen men mekanikern kunde inte reparera den.  ,6,,7,,cor,1,no,155,156,,,,,,,,,,,,,0,84,84,84,,,,,,,,,,,,,,,,,,,,,,,,,,,,,,,,,,,,,,,,,,,,,,,,,,,,,,,,,,,,,,,,,,,,,,,,,,,,,,,,,,,,,,,,,,,,,1689.6198952345585,None,1690.1206537768994,None,1690.1206537768994,None,left,1,4.490104630733185,1690.1206537768994,None,,,,,,,,,,,,,1694.6212830623426,None,,,,,,,,,,,,,,,,,,,,,,,,,,,,,,,,,1683.6295057896186,None,1683.6295057896186,None,1684.12945286806,None,1689.1304872439805,1689.1304872439805,0.009862750343017979,None,1689.1304872439805,1689.1304872439805,1696.121754000068,None,1696.121754000068,None,None,0.00831230904077529,None,,NENA_034,001,2021_Mar_03_1028,test7,3.2.4,100.16841334204562,
130,71,Programmerare utvecklar gärna program för moderna mobiltelefoner.,3,,4,,cor,1,no,137,138,,,,,,,,,,,,,0,85,85,85,,,,,,,,,,,,,,,,,,,,,,,,,,,,,,,,,,,,,,,,,,,,,,,,,,,,,,,,,,,,,,,,,,,,,,,,,,,,,,,,,,,,,,,,,,,,,1701.1220688673056,None,1701.6228017507092,None,1701.6228017507092,None,left,1,3.723799819233136,1701.6228017507092,None,,,,,,,,,,,,,1705.3634530771806,None,,,,,,,,,,,,,,,,,,,,,,,,,,,,,,,,,1696.131811886631,None,1696.131811886631,None,1696.631861280086,None,1700.632599616014,1700.632599616014,0.009865636972790526,None,1700.632599616014,1700.632599616014,1706.8637963616911,None,1706.8637963616911,None,None,0.007899200147221563,None,,NENA_034,001,2021_Mar_03_1028,test7,3.2.4,100.16841334204562,
170,87,Plasten var för mjukt för att kunna användas. ,4,,0,,inc,1,no,172,199,,,,,,,,,,,,,0,86,86,86,,,,,,,,,,,,,,,,,,,,,,,,,,,,,,,,,,,,,,,,,,,,,,,,,,,,,,,,,,,,,,,,,,,,,,,,,,,,,,,,,,,,,,,,,,,,,1712.3641118704018,None,1712.8649207684084,None,1712.8649207684084,None,left,0,6.305491461667771,1712.8649207684084,None,,,,,,,,,,,,,1719.1858274782844,None,,,,,,,,,,,,,,,,,,,,,,,,,,,,,,,,,1706.8738131939544,None,1706.8738131939544,None,1707.3738673984599,None,1711.874741085283,1711.874741085283,0.009865316235845967,None,1711.874741085283,1711.874741085283,1720.6863494131485,None,1720.6863494131485,None,None,0.00784307122012251,None,,NENA_034,001,2021_Mar_03_1028,test7,3.2.4,100.16841334204562,
170,81,Guldet är redan vägd och transporteras nu till banken. ,4,,0,,inc,1,yes,174,199,,,,,,,,,,,,,0,87,87,87,,,,,,,,,,,,,,,,,,,,,,,,,,,,,,,,,,,,,,,,,,,,,,,,,,,,,,,,,,,,,,,,,,,,,,,,,,,,,,,,,,,,,,,,,,,,,1726.6870860491717,None,1727.187587360664,None,1727.187587360664,None,left,0,7.574609454934034,1727.187587360664,None,,,,,,,,,,,,,1734.7789594787646,None,,,,,,,,,,,,,,,,,,,,,,,,,,,,,,,,,1720.6963867725608,None,1720.6963867725608,None,1721.1964249402308,None,1726.197404470172,1726.197404470172,0.009866278446679644,None,1726.197404470172,1726.197404470172,1736.2789976464337,None,1736.2789976464337,None,space,0.008098377649730537,None,81.15393855069397,NENA_034,001,2021_Mar_03_1028,test7,3.2.4,100.16841334204562,
170,38,Tältet var lagom rymlig för familjen.  ,4,,0,,inc,1,no,174,199,,,,,,,,,,,,,0,88,88,88,,,,,,,,,,,,,,,,,,,,,,,,,,,,,,,,,,,,,,,,,,,,,,,,,,,,,,,,,,,,,,,,,,,,,,,,,,,,,,,,,,,,,,,,,,,,,1821.9344885628498,None,1822.43526282129,None,1822.43526282129,None,left,0,1.2058664670403232,1822.43526282129,None,,,,,,,,,,,,,1823.6554546731659,None,,,,,,,,,,,,,,,,,,,,,,,,,,,,,,,,,1817.444010594575,None,1817.444010594575,None,1817.9444349292553,None,1821.445068063539,1821.445068063539,0.009864674762866343,None,1821.445068063539,1821.445068063539,1825.1557386213835,None,1825.1557386213835,None,None,0.007661213500796293,None,,NENA_034,001,2021_Mar_03_1028,test7,3.2.4,100.16841334204562,
140,45,Ekorrar samlar gärna nötter innan de första kall dagarna.,3,,4,,inc,1,no,135,136,,,,,,,,,,,,,0,89,89,89,,,,,,,,,,,,,,,,,,,,,,,,,,,,,,,,,,,,,,,,,,,,,,,,,,,,,,,,,,,,,,,,,,,,,,,,,,,,,,,,,,,,,,,,,,,,,1831.1562132155077,None,1831.6569557210132,None,1831.6569557210132,None,left,0,3.9520803304358196,1831.6569557210132,None,,,,,,,,,,,,,1835.6276782317918,None,,,,,,,,,,,,,,,,,,,,,,,,,,,,,,,,,1825.1657746978499,None,1825.1657746978499,None,1825.6658433355078,None,1830.6668090737703,1830.6668090737703,0.009864674762866343,None,1830.6668090737703,1830.6668090737703,1837.1280074038868,None,1837.1280074038868,None,None,0.008428736471614684,None,,NENA_034,001,2021_Mar_03_1028,test7,3.2.4,100.16841334204562,
170,77,Resultatet blev ganska dåligt men tränaren var nöjd. ,4,,0,,cor,1,no,173,199,,,,,,,,,,,,,0,90,90,90,,,,,,,,,,,,,,,,,,,,,,,,,,,,,,,,,,,,,,,,,,,,,,,,,,,,,,,,,,,,,,,,,,,,,,,,,,,,,,,,,,,,,,,,,,,,,1842.62835691069,None,1843.129066059576,None,1843.129066059576,None,left,1,1.01588512750277,1843.129066059576,None,,,,,,,,,,,,,1844.1590116433845,None,,,,,,,,,,,,,,,,,,,,,,,,,,,,,,,,,1837.138006916367,None,1837.138006916367,None,1837.637977729325,None,1842.1389415431668,1842.1389415431668,0.009868202866528009,None,1842.1389415431668,1842.1389415431668,1845.659598367065,None,1845.659598367065,None,None,0.007612140781930066,None,,NENA_034,001,2021_Mar_03_1028,test7,3.2.4,100.16841334204562,
170,4,Löken är ganska starkt men smakar helt okej. ,4,,0,,inc,1,no,172,199,,,,,,,,,,,,,0,91,91,91,,,,,,,,,,,,,,,,,,,,,,,,,,,,,,,,,,,,,,,,,,,,,,,,,,,,,,,,,,,,,,,,,,,,,,,,,,,,,,,,,,,,,,,,,,,,,1851.1599138757765,None,1851.6607096235775,None,1851.6607096235775,None,left,0,3.0039861159484644,1851.6607096235775,None,,,,,,,,,,,,,1854.6812191331,None,,,,,,,,,,,,,,,,,,,,,,,,,,,,,,,,,1845.66946252865,None,1845.66946252865,None,1846.1696447071063,None,1850.6705155072996,1850.6705155072996,0.009864674764685333,None,1850.6705155072996,1850.6705155072996,1856.1815216840478,None,1856.1815216840478,None,None,0.008071756501522032,None,,NENA_034,001,2021_Mar_03_1028,test7,3.2.4,100.16841334204562,
170,10,Ämnet är väldigt farligt för småbarn.  ,4,,0,,cor,1,no,173,199,,,,,,,,,,,,,0,92,92,92,,,,,,,,,,,,,,,,,,,,,,,,,,,,,,,,,,,,,,,,,,,,,,,,,,,,,,,,,,,,,,,,,,,,,,,,,,,,,,,,,,,,,,,,,,,,,1860.6816617497725,None,1861.182470968516,None,1861.182470968516,None,left,1,2.6102747366594485,1861.182470968516,None,,,,,,,,,,,,,1863.8029377559078,None,,,,,,,,,,,,,,,,,,,,,,,,,,,,,,,,,1856.1915369126273,None,1856.1915369126273,None,1856.6916138894394,None,1860.1922919268645,1860.1922919268645,0.009864995499810902,None,1860.1922919268645,1860.1922919268645,1865.3031745558283,None,1865.3031745558283,None,None,0.008321931143655092,None,,NENA_034,001,2021_Mar_03_1028,test7,3.2.4,100.16841334204562,
140,24,Cowboys rider gärna hästar på öppen slätter.,3,,4,,inc,1,no,133,134,,,,,,,,,,,,,0,93,93,93,,,,,,,,,,,,,,,,,,,,,,,,,,,,,,,,,,,,,,,,,,,,,,,,,,,,,,,,,,,,,,,,,,,,,,,,,,,,,,,,,,,,,,,,,,,,,1870.3134871073462,None,1870.8142379520068,None,1870.8142379520068,None,left,0,2.858312309041139,1870.8142379520068,None,,,,,,,,,,,,,1873.6847488406975,None,,,,,,,,,,,,,,,,,,,,,,,,,,,,,,,,,1865.31322763134,None,1865.31322763134,None,1865.8132805528985,None,1869.8240249122628,1869.8240249122628,0.009868844340417127,None,1869.8240249122628,1869.8240249122628,1875.1850475428037,None,1875.1850475428037,None,None,0.00776994324860425,None,,NENA_034,001,2021_Mar_03_1028,test7,3.2.4,100.16841334204562,
170,14,Havet är helt frusen men isen är mycket tunn. ,4,,0,,inc,1,no,174,199,,,,,,,,,,,,,0,94,94,94,,,,,,,,,,,,,,,,,,,,,,,,,,,,,,,,,,,,,,,,,,,,,,,,,,,,,,,,,,,,,,,,,,,,,,,,,,,,,,,,,,,,,,,,,,,,,1881.1855086659853,None,1881.6862922257915,None,1881.6862922257915,None,left,0,1.8821597256037421,1881.6862922257915,None,,,,,,,,,,,,,1883.5864683743976,None,,,,,,,,,,,,,,,,,,,,,,,,,,,,,,,,,1875.1950505833884,None,1875.1950505833884,None,1875.695151294718,None,1880.6960785445735,1880.6960785445735,0.00986210886912886,None,1880.6960785445735,1880.6960785445735,1885.0868588072062,None,1885.0868588072062,None,None,0.00814360152799054,None,,NENA_034,001,2021_Mar_03_1028,test7,3.2.4,100.16841334204562,
150,114,Mamman kokade soppan men barnen inte fick smaka den.  ,6,,7,,inc,1,no,157,158,,,,,,,,,,,,,0,95,95,95,,,,,,,,,,,,,,,,,,,,,,,,,,,,,,,,,,,,,,,,,,,,,,,,,,,,,,,,,,,,,,,,,,,,,,,,,,,,,,,,,,,,,,,,,,,,,1891.0873455893252,None,1891.5880332488514,None,1891.5880332488514,None,left,0,5.852269949984475,1891.5880332488514,None,,,,,,,,,,,,,1897.4591974782397,None,,,,,,,,,,,,,,,,,,,,,,,,,,,,,,,,,1885.0968551123187,None,1885.0968551123187,None,1885.5968689039983,None,1890.5978885260292,1890.5978885260292,0.00986563697370002,None,1890.5978885260292,1890.5978885260292,1898.95945576752,None,1898.95945576752,None,None,0.0072766501743899425,None,,NENA_034,001,2021_Mar_03_1028,test7,3.2.4,100.16841334204562,
150,75,Artisten övade sången som gitarristen ville inte spela.  ,6,,7,,inc,1,no,153,154,,,,,,,,,,,,,0,96,96,96,,,,,,,,,,,,,,,,,,,,,,,,,,,,,,,,,,,,,,,,,,,,,,,,,,,,,,,,,,,,,,,,,,,,,,,,,,,,,,,,,,,,,,,,,,,,,1904.4598312539974,None,1904.9605862682347,None,1904.9605862682347,None,left,0,2.7994606491320155,1904.9605862682347,None,,,,,,,,,,,,,1907.7710873167234,None,,,,,,,,,,,,,,,,,,,,,,,,,,,,,,,,,1898.969457525157,None,1898.969457525157,None,1899.469514616293,None,1903.9704004911118,1903.9704004911118,0.009866919920568762,None,1903.9704004911118,1903.9704004911118,1909.271361642839,None,1909.271361642839,None,None,0.00758551963554055,None,,NENA_034,001,2021_Mar_03_1028,test7,3.2.4,100.16841334204562,
150,47,Djuren fick rättigheter som djurrättsaktivisterna inte hade krävt från början. ,6,,7,,cor,1,no,151,152,,,,,,,,,,,,,0,97,97,97,,,,,,,,,,,,,,,,,,,,,,,,,,,,,,,,,,,,,,,,,,,,,,,,,,,,,,,,,,,,,,,,,,,,,,,,,,,,,,,,,,,,,,,,,,,,,1915.7719302128216,None,1916.2726611718053,None,1916.2726611718053,None,right,0,5.207349874367537,1916.2726611718053,None,,,,,,,,,,,,,1921.4934906482795,None,,,,,,,,,,,,,,,,,,,,,,,,,,,,,,,,,1909.2813951534117,None,1909.2813951534117,None,1909.781460262966,None,1915.282480847207,1915.282480847207,0.009864995500720397,None,1915.282480847207,1915.282480847207,1922.9939327196998,None,1922.9939327196998,None,None,0.007561785118014086,None,,NENA_034,001,2021_Mar_03_1028,test7,3.2.4,100.16841334204562,
180,60,Gräset som det här året hade vuxit på den stora ängen var makalöst grön och såg inbjudande ut. ,14,,0,,inc,1,no,182,199,,,,,,,,,,,,,0,98,98,98,,,,,,,,,,,,,,,,,,,,,,,,,,,,,,,,,,,,,,,,,,,,,,,,,,,,,,,,,,,,,,,,,,,,,,,,,,,,,,,,,,,,,,,,,,,,,1933.4852246215469,None,1933.9859889371492,None,1933.9859889371492,None,right,1,2.277784940897618,1933.9859889371492,None,,,,,,,,,,,,,1936.2763797933303,None,,,,,,,,,,,,,,,,,,,,,,,,,,,,,,,,,1923.003961419222,None,1923.003961419222,None,1923.503999266154,None,1932.9957945001352,1932.9957945001352,0.009864995499810902,None,1932.9957945001352,1932.9957945001352,1937.7767063995316,None,1937.7767063995316,None,None,0.007661854973775917,None,,NENA_034,001,2021_Mar_03_1028,test7,3.2.4,100.16841334204562,
170,1,Trädet är mycket gammal och måste därför fällas snart. ,4,,0,,inc,1,no,174,199,,,,,,,,,,,,,0,99,99,99,,,,,,,,,,,,,,,,,,,,,,,,,,,,,,,,,,,,,,,,,,,,,,,,,,,,,,,,,,,,,,,,,,,,,,,,,,,,,,,,,,,,,,,,,,,,,1943.7771319209369,None,1944.2779055379042,None,1944.2779055379042,None,left,0,1.6177969749396652,1944.2779055379042,None,,,,,,,,,,,,,1945.907835982939,None,,,,,,,,,,,,,,,,,,,,,,,,,,,,,,,,,1937.7867075156955,None,1937.7867075156955,None,1938.2867508151521,None,1943.287703403209,1943.287703403209,0.00986242960607342,None,1943.287703403209,1943.287703403209,1947.4084220651466,None,1947.4084220651466,None,None,0.007953725388688326,None,,NENA_034,001,2021_Mar_03_1028,test7,3.2.4,100.16841334204562,
170,118,Golvet var hemskt hård att ligga på.  ,4,,0,,inc,1,no,174,199,,,,,,,,,,,,,0,100,100,100,,,,,,,,,,,,,,,,,,,,,,,,,,,,,,,,,,,,,,,,,,,,,,,,,,,,,,,,,,,,,,,,,,,,,,,,,,,,,,,,,,,,,,,,,,,,,1952.4087260273354,None,1952.909497399146,None,1952.909497399146,None,left,0,0.5780669967689391,1952.909497399146,None,,,,,,,,,,,,,1953.49979569071,None,,,,,,,,,,,,,,,,,,,,,,,,,,,,,,,,,1947.418486687181,None,1947.418486687181,None,1947.918466801504,None,1951.919341771275,1951.919341771275,0.009867561393548385,None,1951.919341771275,1951.919341771275,1954.9998718015331,None,1954.9998718015331,None,None,0.008091000704553153,None,,NENA_034,001,2021_Mar_03_1028,test7,3.2.4,100.16841334204562,
130,60,Sjömän styr ofta båtar genom våldsamma åskväder.,3,,4,,cor,1,no,137,138,,,,,,,,,,,,,0,101,101,101,,,,,,,,,,,,,,,,,,,,,,,,,,,,,,,,,,,,,,,,,,,,,,,,,,,,,,,,,,,,,,,,,,,,,,,,,,,,,,,,,,,,,,,,,,,,,1960.0001218799534,None,1960.5009250046987,None,1960.5009250046987,None,left,1,3.946447231432103,1960.5009250046987,None,,,,,,,,,,,,,1964.4612748899717,None,,,,,,,,,,,,,,,,,,,,,,,,,,,,,,,,,1955.0098889545334,None,1955.0098889545334,None,1955.50995085672,None,1959.5107340957884,1959.5107340957884,0.009861146660114173,None,1959.5107340957884,1959.5107340957884,1965.9619260817326,None,1965.9619260817326,None,None,0.007662175710720476,None,,NENA_034,001,2021_Mar_03_1028,test7,3.2.4,100.16841334204562,
180,43,Myntet som på den här tiden faktiskt räckte till ett par nya skor såg fantastiskt blankt ut i solskenet. ,16,,0,,cor,1,no,181,199,,,,,,,,,,,,,0,102,102,102,,,,,,,,,,,,,,,,,,,,,,,,,,,,,,,,,,,,,,,,,,,,,,,,,,,,,,,,,,,,,,,,,,,,,,,,,,,,,,,,,,,,,,,,,,,,,1976.953281810187,None,1977.453893455111,None,1977.453893455111,None,right,0,3.6172360064174427,1977.453893455111,None,,,,,,,,,,,,,1981.0844682602155,None,,,,,,,,,,,,,,,,,,,,,,,,,,,,,,,,,1965.9719008974853,None,1965.9719008974853,None,1966.4719984014482,None,1976.4638590657196,1976.4638590657196,0.009868844340417127,None,1976.4638590657196,1976.4638590657196,1982.5849696679288,None,1982.5849696679288,None,None,0.007965592648361053,None,,NENA_034,001,2021_Mar_03_1028,test7,3.2.4,100.16841334204562,
170,78,Slaget var mycket våldsam och många skadades.  ,4,,0,,inc,1,no,174,199,,,,,,,,,,,,,0,103,103,103,,,,,,,,,,,,,,,,,,,,,,,,,,,,,,,,,,,,,,,,,,,,,,,,,,,,,,,,,,,,,,,,,,,,,,,,,,,,,,,,,,,,,,,,,,,,,1987.5852338587647,None,1988.0860584728698,None,1988.0860584728698,None,left,0,3.280963762524152,1988.0860584728698,None,,,,,,,,,,,,,1991.3765904532074,None,,,,,,,,,,,,,,,,,,,,,,,,,,,,,,,,,1982.5949675767251,None,1982.5949675767251,None,1983.0950968336228,None,1987.095842867232,1987.095842867232,0.009866599183624203,None,1987.095842867232,1987.095842867232,1992.8764019562377,None,1992.8764019562377,None,None,0.008707135943950561,None,,NENA_034,001,2021_Mar_03_1028,test7,3.2.4,100.16841334204562,
180,35,Staketet som löper runt hela odlingen för att hålla obehöriga på avstånd är för högt för nyfikna rådjur. ,15,,0,,cor,1,no,181,199,,,,,,,,,,,,,0,104,104,104,,,,,,,,,,,,,,,,,,,,,,,,,,,,,,,,,,,,,,,,,,,,,,,,,,,,,,,,,,,,,,,,,,,,,,,,,,,,,,,,,,,,,,,,,,,,,2003.3682031879944,None,2003.86890560141,None,2003.86890560141,None,left,1,2.5220041426355237,2003.86890560141,None,,,,,,,,,,,,,2006.4093264464746,None,,,,,,,,,,,,,,,,,,,,,,,,,,,,,,,,,1992.876283508167,None,1992.876283508167,None,1993.3769910533701,None,2002.878778839844,2002.878778839844,0.009864354025921784,None,2002.878778839844,2002.878778839844,2007.9096851263475,None,2007.9096851263475,None,None,0.007590009949126397,None,,NENA_034,001,2021_Mar_03_1028,test7,3.2.4,100.16841334204562,
150,116,Kanalen visade filmer som familjen inte hade sett.  ,6,,7,,cor,1,no,151,152,,,,,,,,,,,,,0,105,105,105,,,,,,,,,,,,,,,,,,,,,,,,,,,,,,,,,,,,,,,,,,,,,,,,,,,,,,,,,,,,,,,,,,,,,,,,,,,,,,,,,,,,,,,,,,,,,2013.4100551603015,None,2013.9108092123288,None,2013.9108092123288,None,left,1,5.0638849812467015,2013.9108092123288,None,,,,,,,,,,,,,2018.9914991939886,None,,,,,,,,,,,,,,,,,,,,,,,,,,,,,,,,,2007.9197215235508,None,2007.9197215235508,None,2008.4198215934075,None,2012.9206051532128,2012.9206051532128,0.009867240657513321,None,2012.9206051532128,2012.9206051532128,2020.4920249776924,None,2020.4920249776924,None,None,0.008347910817064985,None,,NENA_034,001,2021_Mar_03_1028,test7,3.2.4,100.16841334204562,
180,23,Pianot som alldeles nyss hade burits in i vardagsrummet av männen från flyttfirman var fruktansvärt ostämd och lät förskräckligt. ,16,,0,,inc,1,no,182,199,,,,,,,,,,,,,0,106,106,106,,,,,,,,,,,,,,,,,,,,,,,,,,,,,,,,,,,,,,,,,,,,,,,,,,,,,,,,,,,,,,,,,,,,,,,,,,,,,,,,,,,,,,,,,,,,,2031.483426250761,None,2031.9841809442614,None,2031.9841809442614,None,left,0,6.2383474746156935,2031.9841809442614,None,,,,,,,,,,,,,2038.2355445564244,None,,,,,,,,,,,,,,,,,,,,,,,,,,,,,,,,,2020.5020645822633,None,2020.5020645822633,None,2021.002136427288,None,2030.993999657453,2030.993999657453,0.009864995500720397,None,2030.993999657453,2030.993999657453,2039.735576726317,None,2039.735576726317,None,None,0.008040645040637173,None,,NENA_034,001,2021_Mar_03_1028,test7,3.2.4,100.16841334204562,
170,108,Jordgubben lyser helt rött bland de gröna bladen. ,4,,0,,inc,1,no,172,199,,,,,,,,,,,,,0,107,107,107,,,,,,,,,,,,,,,,,,,,,,,,,,,,,,,,,,,,,,,,,,,,,,,,,,,,,,,,,,,,,,,,,,,,,,,,,,,,,,,,,,,,,,,,,,,,,2045.2359746643651,None,2045.7367158869238,None,2045.7367158869238,None,left,0,3.5258427196931734,2045.7367158869238,None,,,,,,,,,,,,,2049.277170088607,None,,,,,,,,,,,,,,,,,,,,,,,,,,,,,,,,,2039.745616010151,None,2039.745616010151,None,2040.2456689317096,None,2044.7465644286303,2044.7465644286303,0.009865957709735085,None,2044.7465644286303,2044.7465644286303,2050.777702287045,None,2050.777702287045,None,None,0.007724719371253741,None,,NENA_034,001,2021_Mar_03_1028,test7,3.2.4,100.16841334204562,
