trig_exp,trig_item,sentence,trig_w1,trig1,trig_w2,trig2,gram,task,paus,trig_1,trig_2,prac_trials.thisRepN,prac_trials.thisTrialN,prac_trials.thisN,prac_trials.thisIndex,trials_2.thisRepN,trials_2.thisTrialN,trials_2.thisN,trials_2.thisIndex,trials.thisRepN,trials.thisTrialN,trials.thisN,trials.thisIndex,exp_trials.thisRepN,exp_trials.thisTrialN,exp_trials.thisN,exp_trials.thisIndex,grating_1.started,grating_1.stopped,text_1.started,text_1.stopped,key_resp_1.keys,key_resp_1.rt,key_resp_1.started,key_resp_1.stopped,grating_2.started,grating_2.stopped,text_2.started,text_2.stopped,key_resp_2.keys,key_resp_2.rt,key_resp_2.started,key_resp_2.stopped,grating_3.started,grating_3.stopped,text_3.started,text_3.stopped,key_resp_3.keys,key_resp_3.rt,key_resp_3.started,key_resp_3.stopped,grating_4.started,grating_4.stopped,text_4.started,text_4.stopped,key_resp_4.keys,key_resp_4.rt,key_resp_4.started,key_resp_4.stopped,grating_5.started,grating_5.stopped,text_5.started,text_5.stopped,key_resp_5.keys,key_resp_5.rt,key_resp_5.started,key_resp_5.stopped,grating_6.started,grating_6.stopped,text_6.started,text_6.stopped,key_resp_6.keys,key_resp_6.rt,key_resp_6.started,key_resp_6.stopped,grating_7.started,grating_7.stopped,text_7.started,text_7.stopped,key_resp_7.keys,key_resp_7.rt,key_resp_7.started,key_resp_7.stopped,grating_8.started,grating_8.stopped,text_8.started,text_8.stopped,key_resp_8.keys,key_resp_8.rt,key_resp_8.started,key_resp_8.stopped,grating_9.started,grating_9.stopped,text_9.started,text_9.stopped,key_resp_9.keys,key_resp_9.rt,key_resp_9.started,key_resp_9.stopped,grating.started,grating.stopped,text.started,text.stopped,key_resp.keys,key_resp.rt,key_resp.started,key_resp.stopped,grating_14.started,grating_14.stopped,text_fix_4.started,text_fix_4.stopped,grating_16.started,grating_16.stopped,grating_40.started,grating_40.stopped,ISI_4.started,ISI_4.stopped,text_19.started,text_19.stopped,grating_24.started,grating_24.stopped,grating_35.started,grating_35.stopped,prompt.started,prompt.stopped,Button_Press.keys,Button_Press.corr,Button_Press.rt,Button_Press.started,Button_Press.stopped,grating_33.started,grating_33.stopped,grating_34.started,grating_34.stopped,Correct_Incorrect.started,Correct_Incorrect.stopped,Continue_text.started,Continue_text.stopped,Press_Bar.keys,Press_Bar.rt,Press_Bar.started,Press_Bar.stopped,grating_26.started,grating_26.stopped,grating_27.started,grating_27.stopped,text_10.started,text_10.stopped,key_resp_11.keys,key_resp_11.rt,key_resp_11.started,key_resp_11.stopped,grating_28.started,grating_28.stopped,text_11.started,text_11.stopped,key_resp_12.keys,key_resp_12.rt,key_resp_12.started,key_resp_12.stopped,grating_29.started,grating_29.stopped,text_12.started,text_12.stopped,key_resp_13.keys,key_resp_13.rt,key_resp_13.started,key_resp_13.stopped,grating_36.started,grating_36.stopped,text_14.started,text_14.stopped,key_resp_14.keys,key_resp_14.rt,key_resp_14.started,key_resp_14.stopped,grating_10.started,grating_10.stopped,text_fix.started,text_fix.stopped,grating_11.started,grating_11.stopped,grating_37.started,grating_37.stopped,ISI_2.started,ISI_2.stopped,text_15.started,text_15.stopped,grating_38.started,grating_38.stopped,text_fix_3.started,text_fix_3.stopped,key_resp_16.keys,key_resp_16.started,key_resp_16.stopped,key_resp_16.rt,participant,session,date,expName,psychopyVersion,frameRate,
,,,,,,,,,,,,,,,,,,,,,,,,,,,,13.097495302810785,None,13.097495302810785,None,space,2.595692762447925,13.097495302810785,None,,,,,,,,,,,,,,,,,,,,,,,,,,,,,,,,,,,,,,,,,,,,,,,,,,,,,,,,,,,,,,,,,,,,,,,,,,,,,,,,,,,,,,,,,,,,,,,,,,,,,,,,,,,,,,,,,,,,,,,,,,,,,,,,,,,,,,,,,,,,,,,,,,,,,,,,,,,,,,,,,,NENA_033,001,2021_Mar_02_1033,test7,3.2.4,99.98402986220813,
,,,,,,,,,,,,,,,,,,,,,,,,,,,,,,,,,,,,15.708354742509073,None,15.708354742509073,None,space,3.7285938709778748,15.708354742509073,None,,,,,,,,,,,,,,,,,,,,,,,,,,,,,,,,,,,,,,,,,,,,,,,,,,,,,,,,,,,,,,,,,,,,,,,,,,,,,,,,,,,,,,,,,,,,,,,,,,,,,,,,,,,,,,,,,,,,,,,,,,,,,,,,,,,,,,,,,,,,,,,,,,,,,,,,,,NENA_033,001,2021_Mar_02_1033,test7,3.2.4,99.98402986220813,
,,,,,,,,,,,,,,,,,,,,,,,,,,,,,,,,,,,,,,,,,,,,19.449097478945077,None,19.449097478945077,None,space,117.3704287800906,19.449097478945077,None,,,,,,,,,,,,,,,,,,,,,,,,,,,,,,,,,,,,,,,,,,,,,,,,,,,,,,,,,,,,,,,,,,,,,,,,,,,,,,,,,,,,,,,,,,,,,,,,,,,,,,,,,,,,,,,,,,,,,,,,,,,,,,,,,,,,,,,,,,,,,,,,,,NENA_033,001,2021_Mar_02_1033,test7,3.2.4,99.98402986220813,
,,,,,,,,,,,,,,,,,,,,,,,,,,,,,,,,,,,,,,,,,,,,,,,,,,,,136.83087809374592,None,136.83087809374592,None,space,9.436622103507034,136.83087809374592,None,,,,,,,,,,,,,,,,,,,,,,,,,,,,,,,,,,,,,,,,,,,,,,,,,,,,,,,,,,,,,,,,,,,,,,,,,,,,,,,,,,,,,,,,,,,,,,,,,,,,,,,,,,,,,,,,,,,,,,,,,,,,,,,,,,,,,,,,,,NENA_033,001,2021_Mar_02_1033,test7,3.2.4,99.98402986220813,
,,,,,,,,,,,,,,,,,,,,,,,,,,,,,,,,,,,,,,,,,,,,,,,,,,,,,,,,,,,,146.28260785894736,None,146.28260785894736,None,space,13.60052113302163,146.28260785894736,None,,,,,,,,,,,,,,,,,,,,,,,,,,,,,,,,,,,,,,,,,,,,,,,,,,,,,,,,,,,,,,,,,,,,,,,,,,,,,,,,,,,,,,,,,,,,,,,,,,,,,,,,,,,,,,,,,,,,,,,,,,,,,,,,,,NENA_033,001,2021_Mar_02_1033,test7,3.2.4,99.98402986220813,
,,,,,,,,,,,,,,,,,,,,,,,,,,,,,,,,,,,,,,,,,,,,,,,,,,,,,,,,,,,,,,,,,,,,159.89512294159158,None,159.89512294159158,None,space,13.251836057350374,159.89512294159158,None,,,,,,,,,,,,,,,,,,,,,,,,,,,,,,,,,,,,,,,,,,,,,,,,,,,,,,,,,,,,,,,,,,,,,,,,,,,,,,,,,,,,,,,,,,,,,,,,,,,,,,,,,,,,,,,,,,,,,,,,,,NENA_033,001,2021_Mar_02_1033,test7,3.2.4,99.98402986220813,
,,,,,,,,,,,,,,,,,,,,,,,,,,,,,,,,,,,,,,,,,,,,,,,,,,,,,,,,,,,,,,,,,,,,,,,,,,,,173.1576164386547,None,173.1576164386547,None,space,7.4613060014330586,173.1576164386547,None,,,,,,,,,,,,,,,,,,,,,,,,,,,,,,,,,,,,,,,,,,,,,,,,,,,,,,,,,,,,,,,,,,,,,,,,,,,,,,,,,,,,,,,,,,,,,,,,,,,,,,,,,,,,,,,,,,NENA_033,001,2021_Mar_02_1033,test7,3.2.4,99.98402986220813,
,,,,,,,,,,,,,,,,,,,,,,,,,,,,,,,,,,,,,,,,,,,,,,,,,,,,,,,,,,,,,,,,,,,,,,,,,,,,,,,,,,,,180.62899549749773,None,180.62899549749773,None,space,4.509858163807621,180.62899549749773,None,,,,,,,,,,,,,,,,,,,,,,,,,,,,,,,,,,,,,,,,,,,,,,,,,,,,,,,,,,,,,,,,,,,,,,,,,,,,,,,,,,,,,,,,,,,,,,,,,,,,,,,,,,NENA_033,001,2021_Mar_02_1033,test7,3.2.4,99.98402986220813,
,,,,,,,,,,,,,,,,,,,,,,,,,,,,,,,,,,,,,,,,,,,,,,,,,,,,,,,,,,,,,,,,,,,,,,,,,,,,,,,,,,,,,,,,,,,,185.14982574374017,None,185.14982574374017,None,space,3.4290299446215613,185.14982574374017,None,,,,,,,,,,,,,,,,,,,,,,,,,,,,,,,,,,,,,,,,,,,,,,,,,,,,,,,,,,,,,,,,,,,,,,,,,,,,,,,,,,,,,,,,,,,,,,,,,,NENA_033,001,2021_Mar_02_1033,test7,3.2.4,99.98402986220813,
,,,,,,,,,,,,,,,,,,,,,,,,,,,,,,,,,,,,,,,,,,,,,,,,,,,,,,,,,,,,,,,,,,,,,,,,,,,,,,,,,,,,,,,,,,,,,,,,,,,,188.59022035254065,None,188.59022035254065,None,space,1.9806069749970447,188.59022035254065,None,,,,,,,,,,,,,,,,,,,,,,,,,,,,,,,,,,,,,,,,,,,,,,,,,,,,,,,,,,,,,,,,,,,,,,,,,,,,,,,,,,,,,,,,,,NENA_033,001,2021_Mar_02_1033,test7,3.2.4,99.98402986220813,
199,1,Meningarna presenteras ord för ord.,99,99,99,99,cor,1,no,,,0,0,0,0,0,0,0,0,0,0,0,0,,,,,,,,,,,,,,,,,,,,,,,,,,,,,,,,,,,,,,,,,,,,,,,,,,,,,,,,,,,,,,,,,,,,,,,,,,,,,,,,,,,,,190.64051187014502,None,190.64051187014502,None,191.09093142584788,None,194.10150547401327,194.10150547401327,0.009888248912375275,None,194.10150547401327,194.10150547401327,194.59102411875983,None,195.1014323460413,None,195.1014323460413,None,left,1,4.981219261394926,195.1014323460413,None,200.09286771342295,None,200.43250191960897,None,200.43250191960897,None,200.43250191960897,None,space,17.561921110313506,200.43250191960897,None,,,,,,,,,,,,,,,,,,,,,,,,,,,,,,,,,,,,,,,,,,,,,,,,,,,,,,,NENA_033,001,2021_Mar_02_1033,test7,3.2.4,99.98402986220813,
199,1,Meningarna presenteras ord för ord.,99,99,99,99,cor,1,no,,,0,0,0,0,0,0,0,0,,,,,,,,,,,,,,,,,,,,,,,,,,,,,,,,,,,,,,,,,,,,,,,,,,,,,,,,,,,,,,,,,,,,,,,,,,,,,,,,,,,,,,,,,,,,,,,,,,,,,,,,,,,,,,,,,,,,,,,,,,,,,,,,,,,,,,,,,,,,,,,,,,,,,,,,,,,,,,,,,,,,,,,,,,,,,,,,,,NENA_033,001,2021_Mar_02_1033,test7,3.2.4,99.98402986220813,
199,1,Meningarna presenteras ord för ord.,99,99,99,99,cor,1,no,,,0,0,0,0,,,,,,,,,,,,,,,,,,,,,,,,,,,,,,,,,,,,,,,,,,,,,,,,,,,,,,,,,,,,,,,,,,,,,,,,,,,,,,,,,,,,,,,,,,,,,,,,,,,,,,,,,,,,,,,,,,,,,,,,,,,,,,,,218.00553816093407,None,,,,,,,,,,,,,,,,,,,,,,,,,,,,,,,,,,,,,,,,,,,,,,,,,,,,,NENA_033,001,2021_Mar_02_1033,test7,3.2.4,99.98402986220813,
199,2,Läs meningen noggrant och ange ditt svar när du ser frågetecknet.,99,99,99,99,cor,1,no,,,0,1,1,1,0,0,0,0,0,0,0,0,,,,,,,,,,,,,,,,,,,,,,,,,,,,,,,,,,,,,,,,,,,,,,,,,,,,,,,,,,,,,,,,,,,,,,,,,,,,,,,,,,,,,219.50610971376818,None,219.50610971376818,None,220.0063416064163,None,226.00745680798946,226.00745680798946,0.009898191750835394,None,226.00745680798946,226.00745680798946,226.49696069884658,None,226.99763103859004,None,226.99763103859004,None,left,1,1.708726155630302,226.99763103859004,None,228.72799248962883,None,229.0277209539222,None,229.0277209539222,None,229.0277209539222,None,space,2.734508897557589,229.0277209539222,None,,,,,,,,,,,,,,,,,,,,,,,,,,,,,,,,,,,,,,,,,,,,,,,,,,,,,,,NENA_033,001,2021_Mar_02_1033,test7,3.2.4,99.98402986220813,
199,2,Läs meningen noggrant och ange ditt svar när du ser frågetecknet.,99,99,99,99,cor,1,no,,,0,1,1,1,0,0,0,0,,,,,,,,,,,,,,,,,,,,,,,,,,,,,,,,,,,,,,,,,,,,,,,,,,,,,,,,,,,,,,,,,,,,,,,,,,,,,,,,,,,,,,,,,,,,,,,,,,,,,,,,,,,,,,,,,,,,,,,,,,,,,,,,,,,,,,,,,,,,,,,,,,,,,,,,,,,,,,,,,,,,,,,,,,,,,,,,,,NENA_033,001,2021_Mar_02_1033,test7,3.2.4,99.98402986220813,
199,2,Läs meningen noggrant och ange ditt svar när du ser frågetecknet.,99,99,99,99,cor,1,no,,,0,1,1,1,,,,,,,,,,,,,,,,,,,,,,,,,,,,,,,,,,,,,,,,,,,,,,,,,,,,,,,,,,,,,,,,,,,,,,,,,,,,,,,,,,,,,,,,,,,,,,,,,,,,,,,,,,,,,,,,,,,,,,,,,,,,,,,,231.7884869630143,None,,,,,,,,,,,,,,,,,,,,,,,,,,,,,,,,,,,,,,,,,,,,,,,,,,,,,NENA_033,001,2021_Mar_02_1033,test7,3.2.4,99.98402986220813,
199,3,I den här meningen finns det en misstag.,99,99,99,99,inc,1,no,,,0,2,2,2,0,0,0,0,0,0,0,0,,,,,,,,,,,,,,,,,,,,,,,,,,,,,,,,,,,,,,,,,,,,,,,,,,,,,,,,,,,,,,,,,,,,,,,,,,,,,,,,,,,,,233.28882469878,None,233.28882469878,None,233.7889132221144,None,238.28974264727094,238.28974264727094,0.009897229540456465,None,238.28974264727094,238.28974264727094,238.77921350224597,None,239.27991046313718,None,239.27991046313718,None,right,1,3.4903496735860244,239.27991046313718,None,242.79056886506032,None,243.09033164818266,None,243.09033164818266,None,243.09033164818266,None,space,2.6237302835120317,243.09033164818266,None,,,,,,,,,,,,,,,,,,,,,,,,,,,,,,,,,,,,,,,,,,,,,,,,,,,,,,,NENA_033,001,2021_Mar_02_1033,test7,3.2.4,99.98402986220813,
199,3,I den här meningen finns det en misstag.,99,99,99,99,inc,1,no,,,0,2,2,2,0,0,0,0,,,,,,,,,,,,,,,,,,,,,,,,,,,,,,,,,,,,,,,,,,,,,,,,,,,,,,,,,,,,,,,,,,,,,,,,,,,,,,,,,,,,,,,,,,,,,,,,,,,,,,,,,,,,,,,,,,,,,,,,,,,,,,,,,,,,,,,,,,,,,,,,,,,,,,,,,,,,,,,,,,,,,,,,,,,,,,,,,,NENA_033,001,2021_Mar_02_1033,test7,3.2.4,99.98402986220813,
199,3,I den här meningen finns det en misstag.,99,99,99,99,inc,1,no,,,0,2,2,2,,,,,,,,,,,,,,,,,,,,,,,,,,,,,,,,,,,,,,,,,,,,,,,,,,,,,,,,,,,,,,,,,,,,,,,,,,,,,,,,,,,,,,,,,,,,,,,,,,,,,,,,,,,,,,,,,,,,,,,,,,,,,,,,245.74112216797494,None,,,,,,,,,,,,,,,,,,,,,,,,,,,,,,,,,,,,,,,,,,,,,,,,,,,,,NENA_033,001,2021_Mar_02_1033,test7,3.2.4,99.98402986220813,
199,4,I det här meningen finns det ett till misstag.,99,99,99,99,inc,1,no,,,0,3,3,3,0,0,0,0,0,0,0,0,,,,,,,,,,,,,,,,,,,,,,,,,,,,,,,,,,,,,,,,,,,,,,,,,,,,,,,,,,,,,,,,,,,,,,,,,,,,,,,,,,,,,247.24141051028573,None,247.24141051028573,None,247.74148684562488,None,252.74241890653138,252.74241890653138,0.009898833224269765,None,252.74241890653138,252.74241890653138,253.23193017433323,None,253.73260757028447,None,253.73260757028447,None,left,0,3.9093877071877614,253.73260757028447,None,257.6543138126549,None,257.97309852839544,None,257.97309852839544,None,257.97309852839544,None,space,2.164753792872034,257.97309852839544,None,,,,,,,,,,,,,,,,,,,,,,,,,,,,,,,,,,,,,,,,,,,,,,,,,,,,,,,NENA_033,001,2021_Mar_02_1033,test7,3.2.4,99.98402986220813,
199,4,I det här meningen finns det ett till misstag.,99,99,99,99,inc,1,no,,,0,3,3,3,0,0,0,0,,,,,,,,,,,,,,,,,,,,,,,,,,,,,,,,,,,,,,,,,,,,,,,,,,,,,,,,,,,,,,,,,,,,,,,,,,,,,,,,,,,,,,,,,,,,,,,,,,,,,,,,,,,,,,,,,,,,,,,,,,,,,,,,,,,,,,,,,,,,,,,,,,,,,,,,,,,,,,,,,,,,,,,,,,,,,,,,,,NENA_033,001,2021_Mar_02_1033,test7,3.2.4,99.98402986220813,
199,4,I det här meningen finns det ett till misstag.,99,99,99,99,inc,1,no,,,0,3,3,3,,,,,,,,,,,,,,,,,,,,,,,,,,,,,,,,,,,,,,,,,,,,,,,,,,,,,,,,,,,,,,,,,,,,,,,,,,,,,,,,,,,,,,,,,,,,,,,,,,,,,,,,,,,,,,,,,,,,,,,,,,,,,,,,260.1541701226047,None,,,,,,,,,,,,,,,,,,,,,,,,,,,,,,,,,,,,,,,,,,,,,,,,,,,,,NENA_033,001,2021_Mar_02_1033,test7,3.2.4,99.98402986220813,
199,5,Ibland kan meningarna låta lite märkliga men ändå vara grammatiskt korrekta.,99,99,99,99,cor,1,no,,,0,4,4,4,0,0,0,0,0,0,0,0,,,,,,,,,,,,,,,,,,,,,,,,,,,,,,,,,,,,,,,,,,,,,,,,,,,,,,,,,,,,,,,,,,,,,,,,,,,,,,,,,,,,,261.6537974265366,None,261.6537974265366,None,262.1541643493438,None,268.1553106623787,268.1553106623787,0.009894663646718982,None,268.1553106623787,268.1553106623787,268.6447821588272,None,269.1454816856126,None,269.1454816856126,None,left,1,3.112325527243229,269.1454816856126,None,272.27654304832004,None,272.59614275606464,None,272.59614275606464,None,272.59614275606464,None,space,1.9016217090006649,272.59614275606464,None,,,,,,,,,,,,,,,,,,,,,,,,,,,,,,,,,,,,,,,,,,,,,,,,,,,,,,,NENA_033,001,2021_Mar_02_1033,test7,3.2.4,99.98402986220813,
199,5,Ibland kan meningarna låta lite märkliga men ändå vara grammatiskt korrekta.,99,99,99,99,cor,1,no,,,0,4,4,4,0,0,0,0,,,,,,,,,,,,,,,,,,,,,,,,,,,,,,,,,,,,,,,,,,,,,,,,,,,,,,,,,,,,,,,,,,,,,,,,,,,,,,,,,,,,,,,,,,,,,,,,,,,,,,,,,,,,,,,,,,,,,,,,,,,,,,,,,,,,,,,,,,,,,,,,,,,,,,,,,,,,,,,,,,,,,,,,,,,,,,,,,,NENA_033,001,2021_Mar_02_1033,test7,3.2.4,99.98402986220813,
199,5,Ibland kan meningarna låta lite märkliga men ändå vara grammatiskt korrekta.,99,99,99,99,cor,1,no,,,0,4,4,4,,,,,,,,,,,,,,,,,,,,,,,,,,,,,,,,,,,,,,,,,,,,,,,,,,,,,,,,,,,,,,,,,,,,,,,,,,,,,,,,,,,,,,,,,,,,,,,,,,,,,,,,,,,,,,,,,,,,,,,,,,,,,,,,274.5264607793515,None,,,,,,,,,,,,,,,,,,,,,,,,,,,,,,,,,,,,,,,,,,,,,,,,,,,,,NENA_033,001,2021_Mar_02_1033,test7,3.2.4,99.98402986220813,
199,6,De gröna idéerna missade bussen i morse.,99,99,99,99,cor,1,no,,,0,5,5,5,0,0,0,0,0,0,0,0,,,,,,,,,,,,,,,,,,,,,,,,,,,,,,,,,,,,,,,,,,,,,,,,,,,,,,,,,,,,,,,,,,,,,,,,,,,,,,,,,,,,,276.0267597059742,None,276.0267597059742,None,276.52685656846324,None,280.5275705284007,280.5275705284007,0.009895305119698605,None,280.5275705284007,280.5275705284007,281.0170631934725,None,281.5177822851974,None,281.5177822851974,None,left,1,1.9801021354010118,281.5177822851974,None,283.5181463213744,None,283.81791936807167,None,283.81791936807167,None,283.81791936807167,None,space,1.5596624823351704,283.81791936807167,None,,,,,,,,,,,,,,,,,,,,,,,,,,,,,,,,,,,,,,,,,,,,,,,,,,,,,,,NENA_033,001,2021_Mar_02_1033,test7,3.2.4,99.98402986220813,
199,6,De gröna idéerna missade bussen i morse.,99,99,99,99,cor,1,no,,,0,5,5,5,0,0,0,0,,,,,,,,,,,,,,,,,,,,,,,,,,,,,,,,,,,,,,,,,,,,,,,,,,,,,,,,,,,,,,,,,,,,,,,,,,,,,,,,,,,,,,,,,,,,,,,,,,,,,,,,,,,,,,,,,,,,,,,,,,,,,,,,,,,,,,,,,,,,,,,,,,,,,,,,,,,,,,,,,,,,,,,,,,,,,,,,,,NENA_033,001,2021_Mar_02_1033,test7,3.2.4,99.98402986220813,
199,6,De gröna idéerna missade bussen i morse.,99,99,99,99,cor,1,no,,,0,5,5,5,,,,,,,,,,,,,,,,,,,,,,,,,,,,,,,,,,,,,,,,,,,,,,,,,,,,,,,,,,,,,,,,,,,,,,,,,,,,,,,,,,,,,,,,,,,,,,,,,,,,,,,,,,,,,,,,,,,,,,,,,,,,,,,,285.3984884319884,None,,,,,,,,,,,,,,,,,,,,,,,,,,,,,,,,,,,,,,,,,,,,,,,,,,,,,NENA_033,001,2021_Mar_02_1033,test7,3.2.4,99.98402986220813,
199,7,Det bruna bordet är mer än hundra år gamla.,99,99,99,99,inc,1,no,,,0,6,6,6,0,0,0,0,0,0,0,0,,,,,,,,,,,,,,,,,,,,,,,,,,,,,,,,,,,,,,,,,,,,,,,,,,,,,,,,,,,,,,,,,,,,,,,,,,,,,,,,,,,,,286.89874951167803,None,286.89874951167803,None,287.3988312995416,None,292.39977330328657,292.39977330328657,0.009899795434648695,None,292.39977330328657,292.39977330328657,292.8892864955087,None,293.3899760794552,None,293.3899760794552,None,right,1,3.499594909523694,293.3899760794552,None,296.90108992751993,None,297.20118723904034,None,297.20118723904034,None,297.20118723904034,None,space,2.056458001772171,297.20118723904034,None,,,,,,,,,,,,,,,,,,,,,,,,,,,,,,,,,,,,,,,,,,,,,,,,,,,,,,,NENA_033,001,2021_Mar_02_1033,test7,3.2.4,99.98402986220813,
199,7,Det bruna bordet är mer än hundra år gamla.,99,99,99,99,inc,1,no,,,0,6,6,6,0,0,0,0,,,,,,,,,,,,,,,,,,,,,,,,,,,,,,,,,,,,,,,,,,,,,,,,,,,,,,,,,,,,,,,,,,,,,,,,,,,,,,,,,,,,,,,,,,,,,,,,,,,,,,,,,,,,,,,,,,,,,,,,,,,,,,,,,,,,,,,,,,,,,,,,,,,,,,,,,,,,,,,,,,,,,,,,,,,,,,,,,,NENA_033,001,2021_Mar_02_1033,test7,3.2.4,99.98402986220813,
199,7,Det bruna bordet är mer än hundra år gamla.,99,99,99,99,inc,1,no,,,0,6,6,6,,,,,,,,,,,,,,,,,,,,,,,,,,,,,,,,,,,,,,,,,,,,,,,,,,,,,,,,,,,,,,,,,,,,,,,,,,,,,,,,,,,,,,,,,,,,,,,,,,,,,,,,,,,,,,,,,,,,,,,,,,,,,,,,299.28106928490433,None,,,,,,,,,,,,,,,,,,,,,,,,,,,,,,,,,,,,,,,,,,,,,,,,,,,,,NENA_033,001,2021_Mar_02_1033,test7,3.2.4,99.98402986220813,
199,8,På våren gilla alla att tillbringa tid i solen.,99,99,99,99,inc,1,no,,,0,7,7,7,0,0,0,0,0,0,0,0,,,,,,,,,,,,,,,,,,,,,,,,,,,,,,,,,,,,,,,,,,,,,,,,,,,,,,,,,,,,,,,,,,,,,,,,,,,,,,,,,,,,,300.78134672216675,None,300.78134672216675,None,301.2814047755128,None,306.28236826861803,306.28236826861803,0.009897550276946276,None,306.28236826861803,306.28236826861803,306.77186253737364,None,307.2722734011113,None,307.2722734011113,None,right,1,0.12108869589064852,307.2722734011113,None,307.41311691302417,None,307.71260642846164,None,307.71260642846164,None,307.71260642846164,None,space,1.9126589009892996,307.71260642846164,None,,,,,,,,,,,,,,,,,,,,,,,,,,,,,,,,,,,,,,,,,,,,,,,,,,,,,,,NENA_033,001,2021_Mar_02_1033,test7,3.2.4,99.98402986220813,
199,8,På våren gilla alla att tillbringa tid i solen.,99,99,99,99,inc,1,no,,,0,7,7,7,0,0,0,0,,,,,,,,,,,,,,,,,,,,,,,,,,,,,,,,,,,,,,,,,,,,,,,,,,,,,,,,,,,,,,,,,,,,,,,,,,,,,,,,,,,,,,,,,,,,,,,,,,,,,,,,,,,,,,,,,,,,,,,,,,,,,,,,,,,,,,,,,,,,,,,,,,,,,,,,,,,,,,,,,,,,,,,,,,,,,,,,,,NENA_033,001,2021_Mar_02_1033,test7,3.2.4,99.98402986220813,
199,8,På våren gilla alla att tillbringa tid i solen.,99,99,99,99,inc,1,no,,,0,7,7,7,,,,,,,,,,,,,,,,,,,,,,,,,,,,,,,,,,,,,,,,,,,,,,,,,,,,,,,,,,,,,,,,,,,,,,,,,,,,,,,,,,,,,,,,,,,,,,,,,,,,,,,,,,,,,,,,,,,,,,,,,,,,,,,,309.6529702465373,None,,,,,,,,,,,,,,,,,,,,,,,,,,,,,,,,,,,,,,,,,,,,,,,,,,,,,NENA_033,001,2021_Mar_02_1033,test7,3.2.4,99.98402986220813,
199,9,Tidningen avskedade dem journalist som publicerade falska fakta.,99,99,99,99,inc,1,no,,,0,8,8,8,0,0,0,0,0,0,0,0,,,,,,,,,,,,,,,,,,,,,,,,,,,,,,,,,,,,,,,,,,,,,,,,,,,,,,,,,,,,,,,,,,,,,,,,,,,,,,,,,,,,,311.15329868093795,None,311.15329868093795,None,311.65337629922396,None,316.1542021962764,316.1542021962764,0.009896588067022094,None,316.1542021962764,316.1542021962764,316.64369871018926,None,317.1443979162377,None,317.1443979162377,None,right,1,1.2088265462239178,317.1443979162377,None,318.3650041599549,None,318.66509954705543,None,318.66509954705543,None,318.66509954705543,None,space,1.9362631991180024,318.66509954705543,None,,,,,,,,,,,,,,,,,,,,,,,,,,,,,,,,,,,,,,,,,,,,,,,,,,,,,,,NENA_033,001,2021_Mar_02_1033,test7,3.2.4,99.98402986220813,
199,9,Tidningen avskedade dem journalist som publicerade falska fakta.,99,99,99,99,inc,1,no,,,0,8,8,8,0,0,0,0,,,,,,,,,,,,,,,,,,,,,,,,,,,,,,,,,,,,,,,,,,,,,,,,,,,,,,,,,,,,,,,,,,,,,,,,,,,,,,,,,,,,,,,,,,,,,,,,,,,,,,,,,,,,,,,,,,,,,,,,,,,,,,,,,,,,,,,,,,,,,,,,,,,,,,,,,,,,,,,,,,,,,,,,,,,,,,,,,,NENA_033,001,2021_Mar_02_1033,test7,3.2.4,99.98402986220813,
199,9,Tidningen avskedade dem journalist som publicerade falska fakta.,99,99,99,99,inc,1,no,,,0,8,8,8,,,,,,,,,,,,,,,,,,,,,,,,,,,,,,,,,,,,,,,,,,,,,,,,,,,,,,,,,,,,,,,,,,,,,,,,,,,,,,,,,,,,,,,,,,,,,,,,,,,,,,,,,,,,,,,,,,,,,,,,,,,,,,,,320.62502156954406,None,,,,,,,,,,,,,,,,,,,,,,,,,,,,,,,,,,,,,,,,,,,,,,,,,,,,,NENA_033,001,2021_Mar_02_1033,test7,3.2.4,99.98402986220813,
199,10,Bra jobbat!,99,99,99,99,cor,1,no,,,0,9,9,9,0,0,0,0,0,0,0,0,,,,,,,,,,,,,,,,,,,,,,,,,,,,,,,,,,,,,,,,,,,,,,,,,,,,,,,,,,,,,,,,,,,,,,,,,,,,,,,,,,,,,322.1253259486907,None,322.1253259486907,None,322.6253666822545,None,324.125691909288,324.125691909288,0.009900757644572877,None,324.125691909288,324.125691909288,324.6151855365697,None,325.115861970311,None,325.115861970311,None,left,1,1.8931770319154566,325.115861970311,None,327.026902754551,None,327.326527620884,None,327.326527620884,None,327.326527620884,None,space,1.1385855254084163,327.326527620884,None,,,,,,,,,,,,,,,,,,,,,,,,,,,,,,,,,,,,,,,,,,,,,,,,,,,,,,,NENA_033,001,2021_Mar_02_1033,test7,3.2.4,99.98402986220813,
199,10,Bra jobbat!,99,99,99,99,cor,1,no,,,0,9,9,9,0,0,0,0,,,,,,,,,,,,,,,,,,,,,,,,,,,,,,,,,,,,,,,,,,,,,,,,,,,,,,,,,,,,,,,,,,,,,,,,,,,,,,,,,,,,,,,,,,,,,,,,,,,,,,,,,,,,,,,,,,,,,,,,,,,,,,,,,,,,,,,,,,,,,,,,,,,,,,,,,,,,,,,,,,,,,,,,,,,,,,,,,,NENA_033,001,2021_Mar_02_1033,test7,3.2.4,99.98402986220813,
199,10,Bra jobbat!,99,99,99,99,cor,1,no,,,0,9,9,9,,,,,,,,,,,,,,,,,,,,,,,,,,,,,,,,,,,,,,,,,,,,,,,,,,,,,,,,,,,,,,,,,,,,,,,,,,,,,,,,,,,,,,,,,,,,,,,,,,,,,,,,,,,,,,,,,,,,,,,,,,,,,,,,328.48649313527176,None,,,,,,,,,,,,,,,,,,,,,,,,,,,,,,,,,,,,,,,,,,,,,,,,,,,,,NENA_033,001,2021_Mar_02_1033,test7,3.2.4,99.98402986220813,
,,,,,,,,,,,,,,,,,,,,,,,,,,,,,,,,,,,,,,,,,,,,,,,,,,,,,,,,,,,,,,,,,,,,,,,,,,,,,,,,,,,,,,,,,,,,,,,,,,,,,,,,,,,,,,,,,,,,,,,,,,,,,,,,,,,,,,,,,,,,,,,,,329.98677089327066,None,329.98677089327066,None,space,3.0222774103203847,329.98677089327066,None,,,,,,,,,,,,,,,,,,,,,,,,,,,,,,,,,,,,,,,,,,,,,NENA_033,001,2021_Mar_02_1033,test7,3.2.4,99.98402986220813,
,,,,,,,,,,,,,,,,,,,,,,,,,,,,,,,,,,,,,,,,,,,,,,,,,,,,,,,,,,,,,,,,,,,,,,,,,,,,,,,,,,,,,,,,,,,,,,,,,,,,,,,,,,,,,,,,,,,,,,,,,,,,,,,,,,,,,,,,,,,,,,,,,,,,,,,,,333.0273261270204,None,333.0273261270204,None,space,77.26898071794994,333.0273261270204,None,,,,,,,,,,,,,,,,,,,,,,,,,,,,,,,,,,,,,NENA_033,001,2021_Mar_02_1033,test7,3.2.4,99.98402986220813,
,,,,,,,,,,,,,,,,,,,,,,,,,,,,,,,,,,,,,,,,,,,,,,,,,,,,,,,,,,,,,,,,,,,,,,,,,,,,,,,,,,,,,,,,,,,,,,,,,,,,,,,,,,,,,,,,,,,,,,,,,,,,,,,,,,,,,,,,,,,,,,,,,,,,,,,,,,,,,,,,,410.3116864914032,None,410.3116864914032,None,space,3.3204025117534,410.3116864914032,None,,,,,,,,,,,,,,,,,,,,,,,,,,,,,NENA_033,001,2021_Mar_02_1033,test7,3.2.4,99.98402986220813,
,,,,,,,,,,,,,,,,,,,,,,,,,,,,,,,,,,,,,,,,,,,,,,,,,,,,,,,,,,,,,,,,,,,,,,,,,,,,,,,,,,,,,,,,,,,,,,,,,,,,,,,,,,,,,,,,,,,,,,,,,,,,,,,,,,,,,,,,,,,,,,,,,,,,,,,,,,,,,,,,,,,,,,,,,413.64226565852687,None,413.64226565852687,None,space,1.1898155186536314,413.64226565852687,None,,,,,,,,,,,,,,,,,,,,,NENA_033,001,2021_Mar_02_1033,test7,3.2.4,99.98402986220813,
170,34,Festen var ganska trevlig men slutade för tidigt. ,4,,0,,cor,1,no,171,199,,,,,,,,,,,,,0,0,0,0,,,,,,,,,,,,,,,,,,,,,,,,,,,,,,,,,,,,,,,,,,,,,,,,,,,,,,,,,,,,,,,,,,,,,,,,,,,,,,,,,,,,,,,,,,,,,420.342959604493,None,420.843653678754,None,420.843653678754,None,left,1,1.876211021668496,420.843653678754,None,,,,,,,,,,,,,422.74400943992305,None,,,,,,,,,,,,,,,,,,,,,,,,,,,,,,,,,414.931938385193,None,414.931938385193,None,415.3525945355441,None,419.8534916361482,419.8534916361482,0.00986483513179337,None,419.8534916361482,419.8534916361482,424.2442807190404,None,424.2442807190404,None,None,0.00808282191883336,None,,NENA_033,001,2021_Mar_02_1033,test7,3.2.4,99.98402986220813,
150,70,Ingenjören hade information som kommittén inte kunde veta.  ,6,,7,,cor,1,no,151,152,,,,,,,,,,,,,0,1,1,1,,,,,,,,,,,,,,,,,,,,,,,,,,,,,,,,,,,,,,,,,,,,,,,,,,,,,,,,,,,,,,,,,,,,,,,,,,,,,,,,,,,,,,,,,,,,,429.7446813833503,None,430.2453886078165,None,430.2453886078165,None,left,1,2.682400727174354,430.2453886078165,None,,,,,,,,,,,,,432.94562197585356,None,,,,,,,,,,,,,,,,,,,,,,,,,,,,,,,,,424.25413157005096,None,424.25413157005096,None,424.75436057606885,None,429.2552217541602,429.2552217541602,0.009877023127501161,None,429.2552217541602,429.2552217541602,434.4461690885495,None,434.4461690885495,None,None,0.008114574854062084,None,,NENA_033,001,2021_Mar_02_1033,test7,3.2.4,99.98402986220813,
150,55,Förslagen innebar försämringar och facket inte kunde acceptera dem.  ,6,,7,,inc,1,no,157,158,,,,,,,,,,,,,0,2,2,2,,,,,,,,,,,,,,,,,,,,,,,,,,,,,,,,,,,,,,,,,,,,,,,,,,,,,,,,,,,,,,,,,,,,,,,,,,,,,,,,,,,,,,,,,,,,,440.44669516091653,None,440.94741521485184,None,440.94741521485184,None,left,0,1.5801771236460809,440.94741521485184,None,,,,,,,,,,,,,442.53744633272845,None,,,,,,,,,,,,,,,,,,,,,,,,,,,,,,,,,434.4561844774971,None,434.4561844774971,None,434.9562495870514,None,439.9571964018469,439.9571964018469,0.009874457233763678,None,439.9571964018469,439.9571964018469,444.0379479008101,None,444.0379479008101,None,None,0.008624225501080218,None,,NENA_033,001,2021_Mar_02_1033,test7,3.2.4,99.98402986220813,
150,49,Regeringen presenterar förslag som riksdagen vill inte diskutera.  ,6,,7,,inc,1,no,153,154,,,,,,,,,,,,,0,3,3,3,,,,,,,,,,,,,,,,,,,,,,,,,,,,,,,,,,,,,,,,,,,,,,,,,,,,,,,,,,,,,,,,,,,,,,,,,,,,,,,,,,,,,,,,,,,,,449.5383591494319,None,450.03906412874085,None,450.03906412874085,None,left,0,0.9764919228873623,450.03906412874085,None,,,,,,,,,,,,,451.0290112777443,None,,,,,,,,,,,,,,,,,,,,,,,,,,,,,,,,,444.0479623275478,None,444.0479623275478,None,444.54804828498845,None,449.0488664843597,449.0488664843597,0.00987381575987456,None,449.0488664843597,449.0488664843597,452.52951348729937,None,452.52951348729937,None,None,0.007667147130177909,None,,NENA_033,001,2021_Mar_02_1033,test7,3.2.4,99.98402986220813,
140,49,Modeller röker gärna cigaretter för att bli mindre hungrigt.,3,,4,,inc,1,no,135,136,,,,,,,,,,,,,0,4,4,4,,,,,,,,,,,,,,,,,,,,,,,,,,,,,,,,,,,,,,,,,,,,,,,,,,,,,,,,,,,,,,,,,,,,,,,,,,,,,,,,,,,,,,,,,,,,,458.5300527098725,None,459.03075031223716,None,459.03075031223716,None,right,1,1.768629190505635,459.03075031223716,None,,,,,,,,,,,,,460.811328869961,None,,,,,,,,,,,,,,,,,,,,,,,,,,,,,,,,,452.53954138497966,None,452.53954138497966,None,453.03965011472746,None,458.0405735157424,458.0405735157424,0.009872532813005819,None,458.0405735157424,458.0405735157424,462.3113355412846,None,462.3113355412846,None,None,0.008047861615978036,None,,NENA_033,001,2021_Mar_02_1033,test7,3.2.4,99.98402986220813,
170,64,Flygplanet var lite skadat och kunde inte starta. ,4,,0,,cor,1,no,173,199,,,,,,,,,,,,,0,5,5,5,,,,,,,,,,,,,,,,,,,,,,,,,,,,,,,,,,,,,,,,,,,,,,,,,,,,,,,,,,,,,,,,,,,,,,,,,,,,,,,,,,,,,,,,,,,,,467.8117775806313,None,468.3124851258344,None,468.3124851258344,None,left,1,0.7268692696375183,468.3124851258344,None,,,,,,,,,,,,,469.052635140813,None,,,,,,,,,,,,,,,,,,,,,,,,,,,,,,,,,462.3213688914889,None,462.3213688914889,None,462.8214336803062,None,467.3222954998714,467.3222954998714,0.009868683972854342,None,467.3222954998714,467.3222954998714,470.5528332919579,None,470.5528332919579,None,None,0.008194438296868611,None,,NENA_033,001,2021_Mar_02_1033,test7,3.2.4,99.98402986220813,
150,22,Vägen har skador som bilister inte kan upptäcka i mörkret. ,6,,7,,cor,1,no,151,152,,,,,,,,,,,,,0,6,6,6,,,,,,,,,,,,,,,,,,,,,,,,,,,,,,,,,,,,,,,,,,,,,,,,,,,,,,,,,,,,,,,,,,,,,,,,,,,,,,,,,,,,,,,,,,,,,477.0534834894356,None,477.55413618865987,None,477.55413618865987,None,left,1,2.0050593010118973,477.55413618865987,None,,,,,,,,,,,,,479.57432047114935,None,,,,,,,,,,,,,,,,,,,,,,,,,,,,,,,,,470.56284515280186,None,470.56284515280186,None,471.0629763341203,None,476.5640437459224,476.5640437459224,0.009870929129192518,None,476.5640437459224,476.5640437459224,481.0748316613325,None,481.0748316613325,None,None,0.007718785741872125,None,,NENA_033,001,2021_Mar_02_1033,test7,3.2.4,99.98402986220813,
140,57,Pensionärer matar ibland fåglar med torr bröd.,3,,4,,inc,1,no,135,136,,,,,,,,,,,,,0,7,7,7,,,,,,,,,,,,,,,,,,,,,,,,,,,,,,,,,,,,,,,,,,,,,,,,,,,,,,,,,,,,,,,,,,,,,,,,,,,,,,,,,,,,,,,,,,,,,486.0751652916683,None,486.57579329416467,None,486.57579329416467,None,left,0,1.5593449529833379,486.57579329416467,None,,,,,,,,,,,,,488.1464576874496,None,,,,,,,,,,,,,,,,,,,,,,,,,,,,,,,,,481.08485057838425,None,481.08485057838425,None,481.58491632941195,None,485.5856617215477,485.5856617215477,0.009876381653157296,None,485.5856617215477,485.5856617215477,489.64644126572955,None,489.64644126572955,None,None,0.007953244284180983,None,,NENA_033,001,2021_Mar_02_1033,test7,3.2.4,99.98402986220813,
170,40,Päronet är för beskt för barnen.  ,4,,0,,cor,1,no,173,199,,,,,,,,,,,,,0,8,8,8,,,,,,,,,,,,,,,,,,,,,,,,,,,,,,,,,,,,,,,,,,,,,,,,,,,,,,,,,,,,,,,,,,,,,,,,,,,,,,,,,,,,,,,,,,,,,494.14666969442123,None,494.647366013839,None,494.647366013839,None,left,1,1.767589682797734,494.647366013839,None,,,,,,,,,,,,,496.42784450170666,None,,,,,,,,,,,,,,,,,,,,,,,,,,,,,,,,,489.65642105290135,None,489.65642105290135,None,490.1565448572751,None,493.65715682293603,493.65715682293603,0.009873495023384748,None,493.65715682293603,493.65715682293603,497.927984920242,None,497.927984920242,None,None,0.008133819056638458,None,,NENA_033,001,2021_Mar_02_1033,test7,3.2.4,99.98402986220813,
130,70,Professorer ger ofta föreläsningar i stora auditorier.,3,,4,,cor,1,no,137,138,,,,,,,,,,,,,0,9,9,9,,,,,,,,,,,,,,,,,,,,,,,,,,,,,,,,,,,,,,,,,,,,,,,,,,,,,,,,,,,,,,,,,,,,,,,,,,,,,,,,,,,,,,,,,,,,,502.92830572110915,None,503.42900428568373,None,503.42900428568373,None,right,0,4.001868291390565,503.42900428568373,None,,,,,,,,,,,,,507.44943681839413,None,,,,,,,,,,,,,,,,,,,,,,,,,,,,,,,,,497.9379743295158,None,497.9379743295158,None,498.43805034411844,None,502.43881530119415,502.43881530119415,0.009870287656212895,None,502.43881530119415,502.43881530119415,508.9500307586512,None,508.9500307586512,None,None,0.00769729638204808,None,,NENA_033,001,2021_Mar_02_1033,test7,3.2.4,99.98402986220813,
150,119,Byborna byggde murar och fienden inte kunde riva dem.  ,6,,7,,inc,1,no,157,158,,,,,,,,,,,,,0,10,10,10,,,,,,,,,,,,,,,,,,,,,,,,,,,,,,,,,,,,,,,,,,,,,,,,,,,,,,,,,,,,,,,,,,,,,,,,,,,,,,,,,,,,,,,,,,,,,514.9505302098705,None,515.4512127376097,None,515.4512127376097,None,left,0,2.499526913338741,515.4512127376097,None,,,,,,,,,,,,,517.961787106512,None,,,,,,,,,,,,,,,,,,,,,,,,,,,,,,,,,508.96003844991765,None,508.96003844991765,None,509.460121841465,None,514.4610272812238,514.4610272812238,0.009874457233308931,None,514.4610272812238,514.4610272812238,519.4619150163156,None,519.4619150163156,None,None,0.008108801592698,None,,NENA_033,001,2021_Mar_02_1033,test7,3.2.4,99.98402986220813,
140,53,Döva använder ofta teckenspråk för att kommunicerar.,3,,4,,inc,1,no,135,136,,,,,,,,,,,,,0,11,11,11,,,,,,,,,,,,,,,,,,,,,,,,,,,,,,,,,,,,,,,,,,,,,,,,,,,,,,,,,,,,,,,,,,,,,,,,,,,,,,,,,,,,,,,,,,,,,524.4622871350575,None,524.9629869825794,None,524.9629869825794,None,right,1,0.6997885062069145,524.9629869825794,None,,,,,,,,,,,,,525.6731301530363,None,,,,,,,,,,,,,,,,,,,,,,,,,,,,,,,,,519.4719567056745,None,519.4719567056745,None,519.9720580584776,None,523.9728233362903,523.9728233362903,0.009861627764621517,None,523.9728233362903,523.9728233362903,527.1733812257402,None,527.1733812257402,None,None,0.008257944167780806,None,,NENA_033,001,2021_Mar_02_1033,test7,3.2.4,99.98402986220813,
180,32,Trädet som i många år hade stått i trädgården utanför deras fönster var nu fällt och skulle fraktas iväg. ,15,,0,,cor,1,no,181,199,,,,,,,,,,,,,0,12,12,12,,,,,,,,,,,,,,,,,,,,,,,,,,,,,,,,,,,,,,,,,,,,,,,,,,,,,,,,,,,,,,,,,,,,,,,,,,,,,,,,,,,,,,,,,,,,,538.1748400004872,None,538.6755372821153,None,538.6755372821153,None,left,1,0.11507520313853092,538.6755372821153,None,,,,,,,,,,,,,538.8056951294843,None,,,,,,,,,,,,,,,,,,,,,,,,,,,,,,,,,527.1834039916325,None,527.1834039916325,None,527.6834979674913,None,537.685312375113,537.685312375113,0.009867721762020665,None,537.685312375113,537.685312375113,540.3058211148676,None,540.3058211148676,None,None,0.008095651387066027,None,,NENA_033,001,2021_Mar_02_1033,test7,3.2.4,99.98402986220813,
180,54,Slipsen som till för några timmar sedan hade hängt i skyltfönstret i klädaffären hängde nu knuten så fint runt hans hals.,16,,0,,cor,1,no,181,199,,,,,,,,,,,,,0,13,13,13,,,,,,,,,,,,,,,,,,,,,,,,,,,,,,,,,,,,,,,,,,,,,,,,,,,,,,,,,,,,,,,,,,,,,,,,,,,,,,,,,,,,,,,,,,,,,552.3074736145936,None,552.8081911026347,None,552.8081911026347,None,left,1,0.07010663212940926,552.8081911026347,None,,,,,,,,,,,,,552.8882906079948,None,,,,,,,,,,,,,,,,,,,,,,,,,,,,,,,,,540.3158547858088,None,540.3158547858088,None,540.8159083488408,None,551.8179767799443,551.8179767799443,0.009870287656212895,None,551.8179767799443,551.8179767799443,554.3884137067474,None,554.3884137067474,None,None,0.008092764756838733,None,,NENA_033,001,2021_Mar_02_1033,test7,3.2.4,99.98402986220813,
180,3,Utslaget som orsakades av ett okänt virus från den brasilianska regnskogen var extremt smittsam och patienten satt i karantän.,14,,0,,inc,1,no,182,199,,,,,,,,,,,,,0,14,14,14,,,,,,,,,,,,,,,,,,,,,,,,,,,,,,,,,,,,,,,,,,,,,,,,,,,,,,,,,,,,,,,,,,,,,,,,,,,,,,,,,,,,,,,,,,,,,565.3898731229683,None,565.8905925354302,None,565.8905925354302,None,left,0,1.5874697144354286,565.8905925354302,None,,,,,,,,,,,,,567.4909561867225,None,,,,,,,,,,,,,,,,,,,,,,,,,,,,,,,,,554.398473036626,None,554.398473036626,None,554.8985201849237,None,564.9004019472568,564.9004019472568,0.009869004709344154,None,564.9004019472568,564.9004019472568,568.9911299618769,None,568.9911299618769,None,None,0.008171986726665637,None,,NENA_033,001,2021_Mar_02_1033,test7,3.2.4,99.98402986220813,
150,6,Systern köpte godis som syskonen inte fick smaka på.  ,6,,7,,cor,1,no,151,152,,,,,,,,,,,,,0,15,15,15,,,,,,,,,,,,,,,,,,,,,,,,,,,,,,,,,,,,,,,,,,,,,,,,,,,,,,,,,,,,,,,,,,,,,,,,,,,,,,,,,,,,,,,,,,,,,574.9916874664427,None,575.4923719186022,None,575.4923719186022,None,left,1,3.169603332069528,575.4923719186022,None,,,,,,,,,,,,,578.6734338907095,None,,,,,,,,,,,,,,,,,,,,,,,,,,,,,,,,,569.0011546521896,None,569.0011546521896,None,569.5012348363698,None,574.5021810096919,574.5021810096919,0.00987413649681912,None,574.5021810096919,574.5021810096919,580.1732468370545,None,580.1732468370545,None,None,0.007788706347128027,None,,NENA_033,001,2021_Mar_02_1033,test7,3.2.4,99.98402986220813,
180,14,Flygeln som bandledaren hade bett pianisten att inte använda på konserten var extremt svårstämd och lät väldigt högt. ,14,,0,,cor,1,no,181,199,,,,,,,,,,,,,0,16,16,16,,,,,,,,,,,,,,,,,,,,,,,,,,,,,,,,,,,,,,,,,,,,,,,,,,,,,,,,,,,,,,,,,,,,,,,,,,,,,,,,,,,,,,,,,,,,,590.6745818074282,None,591.1752935222084,None,591.1752935222084,None,left,1,0.9824383816653608,591.1752935222084,None,,,,,,,,,,,,,592.1751693970982,None,,,,,,,,,,,,,,,,,,,,,,,,,,,,,,,,,580.1832625467391,None,580.1832625467391,None,580.6833481834433,None,590.1850769543607,590.1850769543607,0.00987381575987456,None,590.1850769543607,590.1850769543607,593.6757341503138,None,593.6757341503138,None,None,0.0076697130243701395,None,,NENA_033,001,2021_Mar_02_1033,test7,3.2.4,99.98402986220813,
160,6,Det svenska landslaget spelade en historisk match som de öldrickande gubbarna i restaurangen inte skulle glömma.,14,,15,,cor,1,no,161,162,,,,,,,,,,,,,0,17,17,17,,,,,,,,,,,,,,,,,,,,,,,,,,,,,,,,,,,,,,,,,,,,,,,,,,,,,,,,,,,,,,,,,,,,,,,,,,,,,,,,,,,,,,,,,,,,,603.1769238269535,None,603.6776249574218,None,603.6776249574218,None,left,1,0.5680125420885815,603.6776249574218,None,,,,,,,,,,,,,604.257553830847,None,,,,,,,,,,,,,,,,,,,,,,,,,,,,,,,,,593.6857655760973,None,593.6857655760973,None,594.1858422321734,None,602.6874173702026,602.6874173702026,0.009870929129647266,None,602.6874173702026,602.6874173702026,605.757983553904,None,605.757983553904,None,None,0.008393615799832332,None,,NENA_033,001,2021_Mar_02_1033,test7,3.2.4,99.98402986220813,
150,112,Hyresgästen påpekade problemen men hyresvärden kunde inte åtgärda dem.  ,6,,7,,cor,1,no,155,156,,,,,,,,,,,,,0,18,18,18,,,,,,,,,,,,,,,,,,,,,,,,,,,,,,,,,,,,,,,,,,,,,,,,,,,,,,,,,,,,,,,,,,,,,,,,,,,,,,,,,,,,,,,,,,,,,611.7585038530101,None,612.2592104360028,None,612.2592104360028,None,right,0,1.69831055140412,612.2592104360028,None,,,,,,,,,,,,,613.9692561024972,None,,,,,,,,,,,,,,,,,,,,,,,,,,,,,,,,,605.7680037539026,None,605.7680037539026,None,606.2680784855579,None,611.2689813594234,611.2689813594234,0.009870608392702707,None,611.2689813594234,611.2689813594234,615.469789423514,None,615.469789423514,None,None,0.007784216033087432,None,,NENA_033,001,2021_Mar_02_1033,test7,3.2.4,99.98402986220813,
140,13,Politiker fattar ofta beslut utan att involverar befolkningen.,3,,4,,inc,1,no,131,132,,,,,,,,,,,,,0,19,19,19,,,,,,,,,,,,,,,,,,,,,,,,,,,,,,,,,,,,,,,,,,,,,,,,,,,,,,,,,,,,,,,,,,,,,,,,,,,,,,,,,,,,,,,,,,,,,620.9702365946482,None,621.4709085380755,None,621.4709085380755,None,right,1,0.6864897996101718,621.4709085380755,None,,,,,,,,,,,,,622.1713497435067,None,,,,,,,,,,,,,,,,,,,,,,,,,,,,,,,,,615.4798003221476,None,615.4798003221476,None,615.9798920528497,None,620.4807246853729,620.4807246853729,0.009874136496364372,None,620.4807246853729,620.4807246853729,623.6713188886341,None,623.6713188886341,None,None,0.007938490395190456,None,,NENA_033,001,2021_Mar_02_1033,test7,3.2.4,99.98402986220813,
170,52,Klimatet är väldigt stabilt vid ekvatorn.  ,4,,0,,cor,1,no,173,199,,,,,,,,,,,,,0,20,20,20,,,,,,,,,,,,,,,,,,,,,,,,,,,,,,,,,,,,,,,,,,,,,,,,,,,,,,,,,,,,,,,,,,,,,,,,,,,,,,,,,,,,,,,,,,,,,628.1715659200554,None,628.6722567869492,None,628.6722567869492,None,left,1,2.3970091942387626,628.6722567869492,None,,,,,,,,,,,,,631.0827568090799,None,,,,,,,,,,,,,,,,,,,,,,,,,,,,,,,,,623.6813182407459,None,623.6813182407459,None,624.181428253441,None,627.6820588218311,627.6820588218311,0.009872853549950378,None,627.6820588218311,627.6820588218311,632.5829248109734,None,632.5829248109734,None,None,0.008176477040706231,None,,NENA_033,001,2021_Mar_02_1033,test7,3.2.4,99.98402986220813,
130,6,Slaktare säljer ofta kött från den omedelbara omgivningen.,3,,4,,cor,1,no,131,132,,,,,,,,,,,,,0,21,21,21,,,,,,,,,,,,,,,,,,,,,,,,,,,,,,,,,,,,,,,,,,,,,,,,,,,,,,,,,,,,,,,,,,,,,,,,,,,,,,,,,,,,,,,,,,,,,638.0834079046203,None,638.5841119217193,None,638.5841119217193,None,left,1,2.6850878594095775,638.5841119217193,None,,,,,,,,,,,,,641.2843667791167,None,,,,,,,,,,,,,,,,,,,,,,,,,,,,,,,,,632.5929280119262,None,632.5929280119262,None,633.0930717019764,None,637.5939373703823,637.5939373703823,0.009871570602626889,None,637.5939373703823,637.5939373703823,642.7848847047711,None,642.7848847047711,None,None,0.007670675234294322,None,,NENA_033,001,2021_Mar_02_1033,test7,3.2.4,99.98402986220813,
150,56,Avtalen omfattade material men förlagen har inte ägt rättigheterna till dem. ,6,,7,,cor,1,no,155,156,,,,,,,,,,,,,0,22,22,22,,,,,,,,,,,,,,,,,,,,,,,,,,,,,,,,,,,,,,,,,,,,,,,,,,,,,,,,,,,,,,,,,,,,,,,,,,,,,,,,,,,,,,,,,,,,,649.7855422791936,None,650.2862690685997,None,650.2862690685997,None,left,1,1.9506851257065136,650.2862690685997,None,,,,,,,,,,,,,652.2466850256365,None,,,,,,,,,,,,,,,,,,,,,,,,,,,,,,,,,642.7948814909892,None,642.7948814909892,None,643.2949648825365,None,649.2960945172622,649.2960945172622,0.00987413649681912,None,649.2960945172622,649.2960945172622,653.746857517844,None,653.746857517844,None,None,0.008178401461009344,None,,NENA_033,001,2021_Mar_02_1033,test7,3.2.4,99.98402986220813,
170,102,Bilden var väldigt ful och behövde tas ned. ,4,,0,,cor,1,no,171,199,,,,,,,,,,,,,0,23,23,23,,,,,,,,,,,,,,,,,,,,,,,,,,,,,,,,,,,,,,,,,,,,,,,,,,,,,,,,,,,,,,,,,,,,,,,,,,,,,,,,,,,,,,,,,,,,,659.2473396492805,None,659.748049118904,None,659.748049118904,None,left,1,1.1128140092669128,659.748049118904,None,,,,,,,,,,,,,660.8779327363782,None,,,,,,,,,,,,,,,,,,,,,,,,,,,,,,,,,653.7568850947873,None,653.7568850947873,None,654.2570085784241,None,658.7578764919867,658.7578764919867,0.009870287656212895,None,658.7578764919867,658.7578764919867,662.3785164130599,None,662.3785164130599,None,None,0.00858862372524527,None,,NENA_033,001,2021_Mar_02_1033,test7,3.2.4,99.98402986220813,
170,69,Gungan var för instabilt för barnen.  ,4,,0,,inc,1,no,172,199,,,,,,,,,,,,,0,24,24,24,,,,,,,,,,,,,,,,,,,,,,,,,,,,,,,,,,,,,,,,,,,,,,,,,,,,,,,,,,,,,,,,,,,,,,,,,,,,,,,,,,,,,,,,,,,,,666.87875478459,None,667.3794248035965,None,667.3794248035965,None,left,0,1.8255775987208835,667.3794248035965,None,,,,,,,,,,,,,669.2195712263238,None,,,,,,,,,,,,,,,,,,,,,,,,,,,,,,,,,662.3885228213794,None,662.3885228213794,None,662.8886052507164,None,666.3892184993242,666.3892184993242,0.009875740180177672,None,666.3892184993242,666.3892184993242,670.7200468147315,None,670.7200468147315,None,None,0.007616149991918064,None,,NENA_033,001,2021_Mar_02_1033,test7,3.2.4,99.98402986220813,
160,30,Den torra sommaren orsakade en kraftig aspblomning som de flesta invånarna i de södra stadsdelarna inte hade upplevt förut.,16,,17,,cor,1,no,161,162,,,,,,,,,,,,,0,25,25,25,,,,,,,,,,,,,,,,,,,,,,,,,,,,,,,,,,,,,,,,,,,,,,,,,,,,,,,,,,,,,,,,,,,,,,,,,,,,,,,,,,,,,,,,,,,,,681.7214975710608,None,682.2221961356354,None,682.2221961356354,None,left,1,0.950401594446248,682.2221961356354,None,,,,,,,,,,,,,683.1821774944174,None,,,,,,,,,,,,,,,,,,,,,,,,,,,,,,,,,670.7300865796697,None,670.7300865796697,None,671.230170933427,None,681.2320170939838,681.2320170939838,0.009871570603081636,None,681.2320170939838,681.2320170939838,684.6826145944186,None,684.6826145944186,None,None,0.007586000740502641,None,,NENA_033,001,2021_Mar_02_1033,test7,3.2.4,99.98402986220813,
160,44,Dramaserien från Syrien återuppväckte gamla minnen från arabiska kontakter som den pensionerade socialarbetaren på det lilla kontoret inte hade förutsett.,18,,19,,cor,1,no,161,162,,,,,,,,,,,,,0,26,26,26,,,,,,,,,,,,,,,,,,,,,,,,,,,,,,,,,,,,,,,,,,,,,,,,,,,,,,,,,,,,,,,,,,,,,,,,,,,,,,,,,,,,,,,,,,,,,696.1841859477545,None,696.6849072846362,None,696.6849072846362,None,left,1,0.7034914116329674,696.6849072846362,None,,,,,,,,,,,,,697.4047838523175,None,,,,,,,,,,,,,,,,,,,,,,,,,,,,,,,,,684.6926626985119,None,684.6926626985119,None,685.1927637305785,None,695.6946833398442,695.6946833398442,0.009871891339571448,None,695.6946833398442,695.6946833398442,698.9053008157615,None,698.9053008157615,None,None,0.007635073458459374,None,,NENA_033,001,2021_Mar_02_1033,test7,3.2.4,99.98402986220813,
170,74,Duschen blev nyligen installerad i det nya huset. ,4,,0,,cor,1,no,171,199,,,,,,,,,,,,,0,27,27,27,,,,,,,,,,,,,,,,,,,,,,,,,,,,,,,,,,,,,,,,,,,,,,,,,,,,,,,,,,,,,,,,,,,,,,,,,,,,,,,,,,,,,,,,,,,,,704.4057239316417,None,704.9064067801173,None,704.9064067801173,None,left,1,3.9060196508976333,704.9064067801173,None,,,,,,,,,,,,,708.8271511330663,None,,,,,,,,,,,,,,,,,,,,,,,,,,,,,,,,,698.9153162047096,None,698.9153162047096,None,699.4154060109909,None,703.9162357568839,703.9162357568839,0.00987477797025349,None,703.9162357568839,703.9162357568839,710.3273678869413,None,710.3273678869413,None,None,0.008209833659293508,None,,NENA_033,001,2021_Mar_02_1033,test7,3.2.4,99.98402986220813,
180,49,Ålen som tidigt rödlistades på grund av det nära förestående utrotningshotet är fortfarande vanligt som julmat.  ,14,,0,,inc,1,no,182,199,,,,,,,,,,,,,0,28,28,28,,,,,,,,,,,,,,,,,,,,,,,,,,,,,,,,,,,,,,,,,,,,,,,,,,,,,,,,,,,,,,,,,,,,,,,,,,,,,,,,,,,,,,,,,,,,,719.8285883543062,None,720.329275693096,None,720.329275693096,None,left,0,5.490875681806301,720.329275693096,None,,,,,,,,,,,,,725.830081383735,None,,,,,,,,,,,,,,,,,,,,,,,,,,,,,,,,,710.3374172739814,None,710.3374172739814,None,710.8375285696229,None,719.3390758035575,719.3390758035575,0.009872853549950378,None,719.3390758035575,719.3390758035575,727.3305685186646,None,727.3305685186646,None,None,0.007653034714621754,None,,NENA_033,001,2021_Mar_02_1033,test7,3.2.4,99.98402986220813,
160,49,Båtens praktfulla segel skymde den fantastiska stranden som den fullständigt utmattade seglaren i fören hade inte sett på flera år.,15,,16,,inc,1,no,163,164,,,,,,,,,,,,,0,29,29,29,,,,,,,,,,,,,,,,,,,,,,,,,,,,,,,,,,,,,,,,,,,,,,,,,,,,,,,,,,,,,,,,,,,,,,,,,,,,,,,,,,,,,,,,,,,,,738.8321087605386,None,739.3328317011042,None,739.3328317011042,None,left,0,0.3430442789872359,739.3328317011042,None,,,,,,,,,,,,,739.6925757788608,None,,,,,,,,,,,,,,,,,,,,,,,,,,,,,,,,,727.3405893601366,None,727.3405893601366,None,727.8406766005241,None,738.3425753619031,738.3425753619031,0.009871249866137077,None,738.3425753619031,738.3425753619031,741.1931370039723,None,741.1931370039723,None,None,0.00762128177939303,None,,NENA_033,001,2021_Mar_02_1033,test7,3.2.4,99.98402986220813,
150,13,Galleristen föredrog färger som målaren kunde inte använda.  ,6,,7,,inc,1,no,153,154,,,,,,,,,,,,,0,30,30,30,,,,,,,,,,,,,,,,,,,,,,,,,,,,,,,,,,,,,,,,,,,,,,,,,,,,,,,,,,,,,,,,,,,,,,,,,,,,,,,,,,,,,,,,,,,,,746.6935844958434,None,747.1942853055752,None,747.1942853055752,None,left,0,1.4894692512916663,747.1942853055752,None,,,,,,,,,,,,,748.6948991956565,None,,,,,,,,,,,,,,,,,,,,,,,,,,,,,,,,,741.2031687504928,None,741.2031687504928,None,741.7032601604578,None,746.2040873404576,746.2040873404576,0.009873174286894937,None,746.2040873404576,746.2040873404576,750.1948138155416,None,750.1948138155416,None,None,0.007899039778294537,None,,NENA_033,001,2021_Mar_02_1033,test7,3.2.4,99.98402986220813,
180,4,Rummet som hade lånats ut till ett yngre par på genomresa var fruktansvärt stökigt när de åkte. ,14,,0,,cor,1,no,181,199,,,,,,,,,,,,,0,31,31,31,,,,,,,,,,,,,,,,,,,,,,,,,,,,,,,,,,,,,,,,,,,,,,,,,,,,,,,,,,,,,,,,,,,,,,,,,,,,,,,,,,,,,,,,,,,,,760.1960750164699,None,760.6968069376635,None,760.6968069376635,None,left,1,3.130937237597209,760.6968069376635,None,,,,,,,,,,,,,763.8375603225581,None,,,,,,,,,,,,,,,,,,,,,,,,,,,,,,,,,750.2048452413255,None,750.2048452413255,None,750.7049100301429,None,759.7065797855039,759.7065797855039,0.009872532813460566,None,759.7065797855039,759.7065797855039,765.3376263301751,None,765.3376263301751,None,None,0.008047861615978036,None,,NENA_033,001,2021_Mar_02_1033,test7,3.2.4,99.98402986220813,
170,97,Bänken är ganska nymålat och ser bra ut. ,4,,0,,inc,1,no,172,199,,,,,,,,,,,,,0,32,32,32,,,,,,,,,,,,,,,,,,,,,,,,,,,,,,,,,,,,,,,,,,,,,,,,,,,,,,,,,,,,,,,,,,,,,,,,,,,,,,,,,,,,,,,,,,,,,770.8380677280484,None,771.3387666133599,None,771.3387666133599,None,left,0,1.3767219552623828,771.3387666133599,None,,,,,,,,,,,,,772.7289344933738,None,,,,,,,,,,,,,,,,,,,,,,,,,,,,,,,,,765.3476760379522,None,765.3476760379522,None,765.8477328083513,None,770.3485763459234,770.3485763459234,0.009868363235455035,None,770.3485763459234,770.3485763459234,774.2292619014169,None,774.2292619014169,None,None,0.008307979095661722,None,,NENA_033,001,2021_Mar_02_1033,test7,3.2.4,99.98402986220813,
130,34,Matematiker löser gärna problem som intresserar allmänheten.,3,,4,,cor,1,no,133,134,,,,,,,,,,,,,0,33,33,33,,,,,,,,,,,,,,,,,,,,,,,,,,,,,,,,,,,,,,,,,,,,,,,,,,,,,,,,,,,,,,,,,,,,,,,,,,,,,,,,,,,,,,,,,,,,,779.2296186247963,None,779.7303139820037,None,779.7303139820037,None,left,1,3.145099046706491,779.7303139820037,None,,,,,,,,,,,,,782.8905662350189,None,,,,,,,,,,,,,,,,,,,,,,,,,,,,,,,,,774.2392885161498,None,774.2392885161498,None,774.7393885860065,None,778.7401426380338,778.7401426380338,0.009875419443233113,None,778.7401426380338,778.7401426380338,784.3911967392618,None,784.3911967392618,None,None,0.007772990247303824,None,,NENA_033,001,2021_Mar_02_1033,test7,3.2.4,99.98402986220813,
140,75,Turister besöker ofta städer som de läsa om på bloggar.,3,,4,,inc,1,no,137,138,,,,,,,,,,,,,0,34,34,34,,,,,,,,,,,,,,,,,,,,,,,,,,,,,,,,,,,,,,,,,,,,,,,,,,,,,,,,,,,,,,,,,,,,,,,,,,,,,,,,,,,,,,,,,,,,,790.891759375615,None,791.3924778258665,None,791.3924778258665,None,right,1,0.19481259674194007,791.3924778258665,None,,,,,,,,,,,,,791.6027829683667,None,,,,,,,,,,,,,,,,,,,,,,,,,,,,,,,,,784.4011973743209,None,784.4011973743209,None,784.9012846147084,None,790.4023074441066,790.4023074441066,0.009870287655758148,None,790.4023074441066,790.4023074441066,793.1028274866234,None,793.1028274866234,None,None,0.00800520363236501,None,,NENA_033,001,2021_Mar_02_1033,test7,3.2.4,99.98402986220813,
170,116,Riset blir något klibbigt vid överkokning.  ,4,,0,,cor,1,no,173,199,,,,,,,,,,,,,0,35,35,35,,,,,,,,,,,,,,,,,,,,,,,,,,,,,,,,,,,,,,,,,,,,,,,,,,,,,,,,,,,,,,,,,,,,,,,,,,,,,,,,,,,,,,,,,,,,,797.6030523872109,None,798.1037403674745,None,798.1037403674745,None,left,1,2.3794799703127865,798.1037403674745,None,,,,,,,,,,,,,800.4941760626489,None,,,,,,,,,,,,,,,,,,,,,,,,,,,,,,,,,793.1127723134932,None,793.1127723134932,None,793.61289675934,None,797.1135622880329,797.1135622880329,0.009873495023384748,None,797.1135622880329,797.1135622880329,801.9944367574543,None,801.9944367574543,None,None,0.008259868588083918,None,,NENA_033,001,2021_Mar_02_1033,test7,3.2.4,99.98402986220813,
150,110,Föraren såg älgen som passageraren inte kunde se.  ,6,,7,,cor,1,no,151,152,,,,,,,,,,,,,0,36,36,36,,,,,,,,,,,,,,,,,,,,,,,,,,,,,,,,,,,,,,,,,,,,,,,,,,,,,,,,,,,,,,,,,,,,,,,,,,,,,,,,,,,,,,,,,,,,,807.4948957958472,None,807.9955866627406,None,807.9955866627406,None,left,1,0.4634151661002761,807.9955866627406,None,,,,,,,,,,,,,808.4753783249971,None,,,,,,,,,,,,,,,,,,,,,,,,,,,,,,,,,802.0044515049285,None,802.0044515049285,None,802.5045374623696,None,807.0053903013063,807.0053903013063,0.009875098706743302,None,807.0053903013063,807.0053903013063,809.97594532337,None,809.97594532337,None,None,0.008434670100086805,None,,NENA_033,001,2021_Mar_02_1033,test7,3.2.4,99.98402986220813,
150,100,Kirurgen utförde operationen men experterna hade inte trott att den var möjlig.,6,,7,,cor,1,no,155,156,,,,,,,,,,,,,0,37,37,37,,,,,,,,,,,,,,,,,,,,,,,,,,,,,,,,,,,,,,,,,,,,,,,,,,,,,,,,,,,,,,,,,,,,,,,,,,,,,,,,,,,,,,,,,,,,,817.4767315132162,None,817.9774307192647,None,817.9774307192647,None,left,1,3.113415711352445,817.9774307192647,None,,,,,,,,,,,,,821.1077816501388,None,,,,,,,,,,,,,,,,,,,,,,,,,,,,,,,,,809.9859542975832,None,809.9859542975832,None,810.4860248596615,None,816.9872420555116,816.9872420555116,0.009873495023384748,None,816.9872420555116,816.9872420555116,822.6082498616018,None,822.6082498616018,None,None,0.008145365578911878,None,,NENA_033,001,2021_Mar_02_1033,test7,3.2.4,99.98402986220813,
150,23,Politikern säger saker men partiet inte kan hålla med om dem. ,6,,7,,inc,1,no,157,158,,,,,,,,,,,,,0,38,38,38,,,,,,,,,,,,,,,,,,,,,,,,,,,,,,,,,,,,,,,,,,,,,,,,,,,,,,,,,,,,,,,,,,,,,,,,,,,,,,,,,,,,,,,,,,,,,829.6089802432593,None,830.1096255655389,None,830.1096255655389,None,left,0,1.2930856860975837,830.1096255655389,None,,,,,,,,,,,,,831.4196131145395,None,,,,,,,,,,,,,,,,,,,,,,,,,,,,,,,,,822.6182540247646,None,822.6182540247646,None,823.1183236246325,None,829.1195183689124,829.1195183689124,0.009871891339571448,None,829.1195183689124,829.1195183689124,832.920203847429,None,832.920203847429,None,None,0.007673882601011428,None,,NENA_033,001,2021_Mar_02_1033,test7,3.2.4,99.98402986220813,
140,41,Brevbärare levererar ofta brev och små paketen.,3,,4,,inc,1,no,133,134,,,,,,,,,,,,,0,39,39,39,,,,,,,,,,,,,,,,,,,,,,,,,,,,,,,,,,,,,,,,,,,,,,,,,,,,,,,,,,,,,,,,,,,,,,,,,,,,,,,,,,,,,,,,,,,,,837.920521440929,None,838.4212190432936,None,838.4212190432936,None,left,0,1.9414527192379865,838.4212190432936,None,,,,,,,,,,,,,840.3719532417181,None,,,,,,,,,,,,,,,,,,,,,,,,,,,,,,,,,832.9302176326933,None,832.9302176326933,None,833.4302872325616,None,837.4310419260623,837.4310419260623,0.009873495023384748,None,837.4310419260623,837.4310419260623,841.8718524662403,None,841.8718524662403,None,None,0.00791315219430544,None,,NENA_033,001,2021_Mar_02_1033,test7,3.2.4,99.98402986220813,
160,21,Praktikanten i blomsteraffären vattnade alla gamla orkidéer som den gamla och snart pensionerade ägaren ville inte bry sig om.,15,,16,,inc,1,no,163,164,,,,,,,,,,,,,0,40,40,40,,,,,,,,,,,,,,,,,,,,,,,,,,,,,,,,,,,,,,,,,,,,,,,,,,,,,,,,,,,,,,,,,,,,,,,,,,,,,,,,,,,,,,,,,,,,,852.8733061092003,None,853.3739995419878,None,853.3739995419878,None,right,1,3.2204795527131864,853.3739995419878,None,,,,,,,,,,,,,856.6046114884043,None,,,,,,,,,,,,,,,,,,,,,,,,,,,,,,,,,841.8818835712877,None,841.8818835712877,None,842.3819672835712,None,852.3838089538144,852.3838089538144,0.009873815759419813,None,852.3838089538144,852.3838089538144,858.104812205443,None,858.104812205443,None,None,0.008157232837220363,None,,NENA_033,001,2021_Mar_02_1033,test7,3.2.4,99.98402986220813,
150,41,Regeringen tog beslut som folket ville inte acceptera.  ,6,,7,,inc,1,no,153,154,,,,,,,,,,,,,0,41,41,41,,,,,,,,,,,,,,,,,,,,,,,,,,,,,,,,,,,,,,,,,,,,,,,,,,,,,,,,,,,,,,,,,,,,,,,,,,,,,,,,,,,,,,,,,,,,,863.6053132603461,None,864.1060236921799,None,864.1060236921799,None,left,0,0.9122849219747877,864.1060236921799,None,,,,,,,,,,,,,865.0358930047964,None,,,,,,,,,,,,,,,,,,,,,,,,,,,,,,,,,858.1148173308161,None,858.1148173308161,None,858.6149789821225,None,863.1158350284263,863.1158350284263,0.00987638165406679,None,863.1158350284263,863.1158350284263,866.5364202318154,None,866.5364202318154,None,None,0.008417350317358796,None,,NENA_033,001,2021_Mar_02_1033,test7,3.2.4,99.98402986220813,
150,50,Riksdagen fattar beslut som kommunerna inte kan genomföra.  ,6,,7,,cor,1,no,151,152,,,,,,,,,,,,,0,42,42,42,,,,,,,,,,,,,,,,,,,,,,,,,,,,,,,,,,,,,,,,,,,,,,,,,,,,,,,,,,,,,,,,,,,,,,,,,,,,,,,,,,,,,,,,,,,,,872.0368481587461,None,872.5375653260512,None,872.5375653260512,None,left,1,6.128647498157989,872.5375653260512,None,,,,,,,,,,,,,878.6785788284255,None,,,,,,,,,,,,,,,,,,,,,,,,,,,,,,,,,866.5464401110771,None,866.5464401110771,None,867.0465363320932,None,871.5473622291461,871.5473622291461,0.009875419444142608,None,871.5473622291461,871.5473622291461,880.178965572762,None,880.178965572762,None,None,0.008350637080184242,None,,NENA_033,001,2021_Mar_02_1033,test7,3.2.4,99.98402986220813,
170,11,Konstverket är förmodligen falsk och undersöks därför grundligt. ,4,,0,,inc,1,yes,174,199,,,,,,,,,,,,,0,43,43,43,,,,,,,,,,,,,,,,,,,,,,,,,,,,,,,,,,,,,,,,,,,,,,,,,,,,,,,,,,,,,,,,,,,,,,,,,,,,,,,,,,,,,,,,,,,,,885.6793858020114,None,886.1800551795454,None,886.1800551795454,None,left,0,2.7101794137061006,886.1800551795454,None,,,,,,,,,,,,,888.9010341193302,None,,,,,,,,,,,,,,,,,,,,,,,,,,,,,,,,,880.1889828861299,None,880.1889828861299,None,880.689069485044,None,885.1898883258887,885.1898883258887,0.009875098707198049,None,885.1898883258887,885.1898883258887,890.4015806547009,None,890.4015806547009,None,space,0.007785498979501426,None,68.81589776452893,NENA_033,001,2021_Mar_02_1033,test7,3.2.4,99.98402986220813,
150,95,Mostern köpte sparkcyklar men barnen inte får använda dem utan hjälm. ,6,,7,,inc,1,no,157,158,,,,,,,,,,,,,0,44,44,44,,,,,,,,,,,,,,,,,,,,,,,,,,,,,,,,,,,,,,,,,,,,,,,,,,,,,,,,,,,,,,,,,,,,,,,,,,,,,,,,,,,,,,,,,,,,,966.2243614292279,None,966.7250680122211,None,966.7250680122211,None,left,0,1.4761589981726502,966.7250680122211,None,,,,,,,,,,,,,968.2155690735394,None,,,,,,,,,,,,,,,,,,,,,,,,,,,,,,,,,959.2336781894542,None,959.2336781894542,None,959.7337683164719,None,965.7348575383708,965.7348575383708,0.00987477797025349,None,965.7348575383708,965.7348575383708,969.7156074977978,None,969.7156074977978,None,None,0.00806325697885768,None,,NENA_033,001,2021_Mar_02_1033,test7,3.2.4,99.98402986220813,
140,1,Hönor lägger ofta ägg tidigt på morgon.,3,,4,,inc,1,no,131,132,,,,,,,,,,,,,0,45,45,45,,,,,,,,,,,,,,,,,,,,,,,,,,,,,,,,,,,,,,,,,,,,,,,,,,,,,,,,,,,,,,,,,,,,,,,,,,,,,,,,,,,,,,,,,,,,,974.7159446562378,None,975.2166621442789,None,975.2166621442789,None,right,1,0.6082874519452162,975.2166621442789,None,,,,,,,,,,,,,975.836881002187,None,,,,,,,,,,,,,,,,,,,,,,,,,,,,,,,,,969.7256068499096,None,969.7256068499096,None,970.225700184295,None,974.2264269737011,974.2264269737011,0.009871249866591825,None,974.2264269737011,974.2264269737011,977.337010515674,None,977.337010515674,None,None,0.008123876218633086,None,,NENA_033,001,2021_Mar_02_1033,test7,3.2.4,99.98402986220813,
150,9,Företaget tillverkar energibilar som kunderna kan inte köpa.  ,6,,7,,inc,1,no,153,154,,,,,,,,,,,,,0,46,46,46,,,,,,,,,,,,,,,,,,,,,,,,,,,,,,,,,,,,,,,,,,,,,,,,,,,,,,,,,,,,,,,,,,,,,,,,,,,,,,,,,,,,,,,,,,,,,982.8374464610229,None,983.3381232155011,None,983.3381232155011,None,left,0,0.7426857594819012,983.3381232155011,None,,,,,,,,,,,,,984.0980088022984,None,,,,,,,,,,,,,,,,,,,,,,,,,,,,,,,,,977.3470166032571,None,977.3470166032571,None,977.8470727321824,None,982.3479922843576,982.3479922843576,0.009871249866591825,None,982.3479922843576,982.3479922843576,985.5985517454168,None,985.5985517454168,None,None,0.008314393830005429,None,,NENA_033,001,2021_Mar_02_1033,test7,3.2.4,99.98402986220813,
180,48,Golvet som de små barnen skulle springa runt på i idrottshallen var fruktansvärt slitet efter alla år. ,14,,0,,cor,1,no,181,199,,,,,,,,,,,,,0,47,47,47,,,,,,,,,,,,,,,,,,,,,,,,,,,,,,,,,,,,,,,,,,,,,,,,,,,,,,,,,,,,,,,,,,,,,,,,,,,,,,,,,,,,,,,,,,,,,995.5998004376129,None,996.1005269062821,None,996.1005269062821,None,left,1,3.868147059069088,996.1005269062821,None,,,,,,,,,,,,,999.9810136691572,None,,,,,,,,,,,,,,,,,,,,,,,,,,,,,,,,,985.6085427583744,None,985.6085427583744,None,986.1086376964427,None,995.110333110742,995.110333110742,0.009876702390101855,None,995.110333110742,995.110333110742,1001.4815113883982,None,1001.4815113883982,None,None,0.0075609832756526885,None,,NENA_033,001,2021_Mar_02_1033,test7,3.2.4,99.98402986220813,
140,29,Mekaniker reparerar ofta bilar och motorcykel.,3,,4,,inc,1,no,133,134,,,,,,,,,,,,,0,48,48,48,,,,,,,,,,,,,,,,,,,,,,,,,,,,,,,,,,,,,,,,,,,,,,,,,,,,,,,,,,,,,,,,,,,,,,,,,,,,,,,,,,,,,,,,,,,,,1005.9817298742514,None,1006.4824492867133,None,1006.4824492867133,None,left,0,1.9260506212349355,1006.4824492867133,None,,,,,,,,,,,,,1008.4224695957623,None,,,,,,,,,,,,,,,,,,,,,,,,,,,,,,,,,1001.4914956658845,None,1001.4914956658845,None,1001.9916027919485,None,1005.4922359262332,1005.4922359262332,0.009875098707198049,None,1005.4922359262332,1005.4922359262332,1009.9230523102345,None,1009.9230523102345,None,None,0.0077534253086923854,None,,NENA_033,001,2021_Mar_02_1033,test7,3.2.4,99.98402986220813,
150,81,Politiken kräver skatter som ekonomin kan inte klara av.  ,6,,7,,inc,1,no,153,154,,,,,,,,,,,,,0,49,49,49,,,,,,,,,,,,,,,,,,,,,,,,,,,,,,,,,,,,,,,,,,,,,,,,,,,,,,,,,,,,,,,,,,,,,,,,,,,,,,,,,,,,,,,,,,,,,1015.9235642701856,None,1016.4243013231667,None,1016.4243013231667,None,right,1,0.976221862570128,1016.4243013231667,None,,,,,,,,,,,,,1017.4146885229497,None,,,,,,,,,,,,,,,,,,,,,,,,,,,,,,,,,1009.9330988106435,None,1009.9330988106435,None,1010.4331632787248,None,1015.4341011128922,1015.4341011128922,0.009872212076516007,None,1015.4341011128922,1015.4341011128922,1018.9147394559408,None,1018.9147394559408,None,None,0.008050427510170266,None,,NENA_033,001,2021_Mar_02_1033,test7,3.2.4,99.98402986220813,
130,8,Bönder mjölkar ofta kor innan de lämnar ladugården.,3,,4,,cor,1,no,131,132,,,,,,,,,,,,,0,50,50,50,,,,,,,,,,,,,,,,,,,,,,,,,,,,,,,,,,,,,,,,,,,,,,,,,,,,,,,,,,,,,,,,,,,,,,,,,,,,,,,,,,,,,,,,,,,,,1024.4151709109751,None,1024.9158855123865,None,1024.9158855123865,None,left,1,2.1004239497951858,1024.9158855123865,None,,,,,,,,,,,,,1027.0362458151872,None,,,,,,,,,,,,,,,,,,,,,,,,,,,,,,,,,1018.9247654291999,None,1018.9247654291999,None,1019.4248327839109,None,1023.925627569502,1023.925627569502,0.00986932544492447,None,1023.925627569502,1023.925627569502,1028.536522867566,None,1028.536522867566,None,None,0.008968055264631403,None,,NENA_033,001,2021_Mar_02_1033,test7,3.2.4,99.98402986220813,
160,34,Den nya medicinen mildrar de flesta typer av huvudvärk som många andra liknande substanser på marknaden inte kan klara av.,17,,18,,cor,1,no,161,162,,,,,,,,,,,,,0,51,51,51,,,,,,,,,,,,,,,,,,,,,,,,,,,,,,,,,,,,,,,,,,,,,,,,,,,,,,,,,,,,,,,,,,,,,,,,,,,,,,,,,,,,,,,,,,,,,1040.0380672790175,None,1040.5387741827467,None,1040.5387741827467,None,left,1,1.109315092394354,1040.5387741827467,None,,,,,,,,,,,,,1041.6587637139005,None,,,,,,,,,,,,,,,,,,,,,,,,,,,,,,,,,1028.5465405016707,None,1028.5465405016707,None,1029.0466200443766,None,1039.5485794249958,1039.5485794249958,0.009870929129647266,None,1039.5485794249958,1039.5485794249958,1043.1592325668366,None,1043.1592325668366,None,None,0.008619093712695758,None,,NENA_033,001,2021_Mar_02_1033,test7,3.2.4,99.98402986220813,
180,27,Folket som såg den nya konservativa ministern på gatan den dagen blev glatt överraskad över färgvalet.  ,14,,0,,inc,1,no,182,199,,,,,,,,,,,,,0,52,52,52,,,,,,,,,,,,,,,,,,,,,,,,,,,,,,,,,,,,,,,,,,,,,,,,,,,,,,,,,,,,,,,,,,,,,,,,,,,,,,,,,,,,,,,,,,,,,1052.6604177531622,None,1053.1611137518435,None,1053.1611137518435,None,left,0,3.502740374530731,1053.1611137518435,None,,,,,,,,,,,,,1056.6817072943863,None,,,,,,,,,,,,,,,,,,,,,,,,,,,,,,,,,1043.1692460313639,None,1043.1692460313639,None,1043.6693358376456,None,1052.1709177111456,1052.1709177111456,0.009869004709798901,None,1052.1709177111456,1052.1709177111456,1058.18203470243,None,1058.18203470243,None,None,0.007616149991918064,None,,NENA_033,001,2021_Mar_02_1033,test7,3.2.4,99.98402986220813,
150,108,Fällan fångade djuret men jägaren ville inte ta hem det. ,6,,7,,cor,1,no,155,156,,,,,,,,,,,,,0,53,53,53,,,,,,,,,,,,,,,,,,,,,,,,,,,,,,,,,,,,,,,,,,,,,,,,,,,,,,,,,,,,,,,,,,,,,,,,,,,,,,,,,,,,,,,,,,,,,1064.6826470529745,None,1065.1833392028152,None,1065.1833392028152,None,left,1,0.6244439227120893,1065.1833392028152,None,,,,,,,,,,,,,1065.823803924663,None,,,,,,,,,,,,,,,,,,,,,,,,,,,,,,,,,1058.192050091378,None,1058.192050091378,None,1058.692147274604,None,1064.1931585574798,1064.1931585574798,0.00987638165406679,None,1064.1931585574798,1064.1931585574798,1067.3237454864325,None,1067.3237454864325,None,None,0.007816931179149833,None,,NENA_033,001,2021_Mar_02_1033,test7,3.2.4,99.98402986220813,
170,114,Sjön är ganska förorenad till följd av ansvarslös båttrafik. ,4,,0,,cor,1,no,171,199,,,,,,,,,,,,,0,54,54,54,,,,,,,,,,,,,,,,,,,,,,,,,,,,,,,,,,,,,,,,,,,,,,,,,,,,,,,,,,,,,,,,,,,,,,,,,,,,,,,,,,,,,,,,,,,,,1073.324221844608,None,1073.8249528035917,None,1073.8249528035917,None,left,1,1.4387822653125113,1073.8249528035917,None,,,,,,,,,,,,,1075.275233159558,None,,,,,,,,,,,,,,,,,,,,,,,,,,,,,,,,,1067.3337730633752,None,1067.3337730633752,None,1067.8338275886176,None,1072.8347795352006,1072.8347795352006,0.009870929128737771,None,1072.8347795352006,1072.8347795352006,1076.7754451023825,None,1076.7754451023825,None,None,0.008213682501263975,None,,NENA_033,001,2021_Mar_02_1033,test7,3.2.4,99.98402986220813,
170,20,Vädret är väldigt varmt för april månad.  ,4,,0,,cor,1,no,173,199,,,,,,,,,,,,,0,55,55,55,,,,,,,,,,,,,,,,,,,,,,,,,,,,,,,,,,,,,,,,,,,,,,,,,,,,,,,,,,,,,,,,,,,,,,,,,,,,,,,,,,,,,,,,,,,,,1081.775825560279,None,1082.276515464962,None,1082.276515464962,None,left,1,0.8430401094092304,1082.276515464962,None,,,,,,,,,,,,,1083.1364141378176,None,,,,,,,,,,,,,,,,,,,,,,,,,,,,,,,,,1076.7854887161616,None,1076.7854887161616,None,1077.2855961629625,None,1081.2863168583713,1081.2863168583713,0.009875740180177672,None,1081.2863168583713,1081.2863168583713,1084.636958043147,None,1084.636958043147,None,None,0.008373730123821588,None,,NENA_033,001,2021_Mar_02_1033,test7,3.2.4,99.98402986220813,
160,19,Den trötta bagaren köpte fem kilo gammalt mjöl som den elaka mjölnaren söder om staden kunde inte sälja till någon annan.,16,,17,,inc,1,no,163,164,,,,,,,,,,,,,0,56,56,56,,,,,,,,,,,,,,,,,,,,,,,,,,,,,,,,,,,,,,,,,,,,,,,,,,,,,,,,,,,,,,,,,,,,,,,,,,,,,,,,,,,,,,,,,,,,,1096.638583921725,None,1097.1392584310456,None,1097.1392584310456,None,left,0,1.348199159541764,1097.1392584310456,None,,,,,,,,,,,,,1098.4992719276465,None,,,,,,,,,,,,,,,,,,,,,,,,,,,,,,,,,1084.6469715076742,None,1084.6469715076742,None,1085.1470459185934,None,1096.149070408766,1096.149070408766,0.009876060917122231,None,1096.149070408766,1096.149070408766,1099.9998190403426,None,1099.9998190403426,None,None,0.0075520026475714985,None,,NENA_033,001,2021_Mar_02_1033,test7,3.2.4,99.98402986220813,
160,40,Den trevliga städerskan avlägsnade de nytvättade sängkläderna som gästerna i ett av hotellets finaste rum inte hade efterfrågat.,16,,17,,cor,1,no,161,162,,,,,,,,,,,,,0,57,57,57,,,,,,,,,,,,,,,,,,,,,,,,,,,,,,,,,,,,,,,,,,,,,,,,,,,,,,,,,,,,,,,,,,,,,,,,,,,,,,,,,,,,,,,,,,,,,1110.5011687646052,None,1111.0018673291802,None,1111.0018673291802,None,left,1,1.2214148209868654,1111.0018673291802,None,,,,,,,,,,,,,1112.2417783953028,None,,,,,,,,,,,,,,,,,,,,,,,,,,,,,,,,,1100.0098174302443,None,1100.0098174302443,None,1100.5099117268396,None,1110.0116725714292,1110.0116725714292,0.009866438815151923,None,1110.0116725714292,1110.0116725714292,1113.7423793917674,None,1113.7423793917674,None,None,0.008714352518836677,None,,NENA_033,001,2021_Mar_02_1033,test7,3.2.4,99.98402986220813,
140,79,Översättare använder ofta lexikon och olika ordbok.,3,,4,,inc,1,no,137,138,,,,,,,,,,,,,0,58,58,58,,,,,,,,,,,,,,,,,,,,,,,,,,,,,,,,,,,,,,,,,,,,,,,,,,,,,,,,,,,,,,,,,,,,,,,,,,,,,,,,,,,,,,,,,,,,,1118.7526856889194,None,1119.253389385282,None,1119.253389385282,None,right,1,4.2736653984729855,1119.253389385282,None,,,,,,,,,,,,,1123.5439861544369,None,,,,,,,,,,,,,,,,,,,,,,,,,,,,,,,,,1113.7523617448328,None,1113.7523617448328,None,1114.2524592487957,None,1118.2631295179776,1118.2631295179776,0.009871570603536384,None,1118.2631295179776,1118.2631295179776,1125.044453724427,None,1125.044453724427,None,None,0.008108160120173125,None,,NENA_033,001,2021_Mar_02_1033,test7,3.2.4,99.98402986220813,
180,36,Biobesöket som de alla hade sett fram emot så mycket den här veckan blev ganska tråkigt av någon anledning. ,16,,0,,cor,1,no,181,199,,,,,,,,,,,,,0,59,59,59,,,,,,,,,,,,,,,,,,,,,,,,,,,,,,,,,,,,,,,,,,,,,,,,,,,,,,,,,,,,,,,,,,,,,,,,,,,,,,,,,,,,,,,,,,,,,1136.0458794632918,None,1136.5466091393287,None,1136.5466091393287,None,left,1,0.5563649881232777,1136.5466091393287,None,,,,,,,,,,,,,1137.1169277784297,None,,,,,,,,,,,,,,,,,,,,,,,,,,,,,,,,,1125.0544928478917,None,1125.0544928478917,None,1125.554538713243,None,1135.556431059887,1135.556431059887,0.009876702390101855,None,1135.556431059887,1135.556431059887,1138.616996993414,None,1138.616996993414,None,None,0.00806133255809982,None,,NENA_033,001,2021_Mar_02_1033,test7,3.2.4,99.98402986220813,
150,27,Tjejen har vänner men föräldrarna inte borde veta om dem. ,6,,7,,inc,1,no,157,158,,,,,,,,,,,,,0,60,60,60,,,,,,,,,,,,,,,,,,,,,,,,,,,,,,,,,,,,,,,,,,,,,,,,,,,,,,,,,,,,,,,,,,,,,,,,,,,,,,,,,,,,,,,,,,,,,1145.1175833642842,None,1145.6182700616005,None,1145.6182700616005,None,left,0,1.6045155881256505,1145.6182700616005,None,,,,,,,,,,,,,1147.2383635114506,None,,,,,,,,,,,,,,,,,,,,,,,,,,,,,,,,,1138.6269969869995,None,1138.6269969869995,None,1139.1270823029668,None,1144.6281070567852,1144.6281070567852,0.00987285354949563,None,1144.6281070567852,1144.6281070567852,1148.7388721357406,None,1148.7388721357406,None,None,0.008629357288555184,None,,NENA_033,001,2021_Mar_02_1033,test7,3.2.4,99.98402986220813,
150,40,Nätet sprider information och tidningar kan inte kontrollera detta.  ,6,,7,,cor,1,no,155,156,,,,,,,,,,,,,0,61,61,61,,,,,,,,,,,,,,,,,,,,,,,,,,,,,,,,,,,,,,,,,,,,,,,,,,,,,,,,,,,,,,,,,,,,,,,,,,,,,,,,,,,,,,,,,,,,,1154.7393670966462,None,1155.240087150581,None,1155.240087150581,None,left,1,1.766653773050166,1155.240087150581,None,,,,,,,,,,,,,1157.020811002039,None,,,,,,,,,,,,,,,,,,,,,,,,,,,,,,,,,1148.748844866705,None,1148.748844866705,None,1149.2489487854023,None,1154.2498792426254,1154.2498792426254,0.009874457233308931,None,1154.2498792426254,1154.2498792426254,1158.5206723796286,None,1158.5206723796286,None,None,0.007845476746297209,None,,NENA_033,001,2021_Mar_02_1033,test7,3.2.4,99.98402986220813,
130,46,Idrottare lyfter ofta vikter för att stärka ryggen.,3,,4,,cor,1,no,135,136,,,,,,,,,,,,,0,62,62,62,,,,,,,,,,,,,,,,,,,,,,,,,,,,,,,,,,,,,,,,,,,,,,,,,,,,,,,,,,,,,,,,,,,,,,,,,,,,,,,,,,,,,,,,,,,,,1164.021072081729,None,1164.5218210019689,None,1164.5218210019689,None,left,1,1.068793215263213,1164.5218210019689,None,,,,,,,,,,,,,1165.6022046800622,None,,,,,,,,,,,,,,,,,,,,,,,,,,,,,,,,,1158.5307002773084,None,1158.5307002773084,None,1159.0307968190614,None,1163.531624961271,1163.531624961271,0.009876060917122231,None,1163.531624961271,1163.531624961271,1167.1022857623043,None,1167.1022857623043,None,None,0.00806870950236771,None,,NENA_033,001,2021_Mar_02_1033,test7,3.2.4,99.98402986220813,
170,16,Fartyget är kraftigt skadat och måste bogseras.  ,4,,0,,cor,1,no,173,199,,,,,,,,,,,,,0,63,63,63,,,,,,,,,,,,,,,,,,,,,,,,,,,,,,,,,,,,,,,,,,,,,,,,,,,,,,,,,,,,,,,,,,,,,,,,,,,,,,,,,,,,,,,,,,,,,1172.1025786590767,None,1172.6033153913208,None,1172.6033153913208,None,left,1,2.7152627699715595,1172.6033153913208,None,,,,,,,,,,,,,1175.3335863946045,None,,,,,,,,,,,,,,,,,,,,,,,,,,,,,,,,,1167.1123059623028,None,1167.1123059623028,None,1167.6123345078709,None,1171.6131151810464,1171.6131151810464,0.009865155868283182,None,1171.6131151810464,1171.6131151810464,1176.8340683977472,None,1176.8340683977472,None,None,0.008566492891986854,None,,NENA_033,001,2021_Mar_02_1033,test7,3.2.4,99.98402986220813,
160,24,En polisassistent från förorten arresterade tre misstänkta smugglare som de äldre kollegorna på polisstationen inte hade upptäckt.,15,,16,,cor,1,no,161,162,,,,,,,,,,,,,0,64,64,64,,,,,,,,,,,,,,,,,,,,,,,,,,,,,,,,,,,,,,,,,,,,,,,,,,,,,,,,,,,,,,,,,,,,,,,,,,,,,,,,,,,,,,,,,,,,,1186.8353356926723,None,1187.3360551051342,None,1187.3360551051342,None,left,1,0.6862114001378359,1187.3360551051342,None,,,,,,,,,,,,,1188.0361515185919,None,,,,,,,,,,,,,,,,,,,,,,,,,,,,,,,,,1176.8440924465863,None,1176.8440924465863,None,1177.3441809699202,None,1186.3458571400165,1186.3458571400165,0.009866759552096482,None,1186.3458571400165,1186.3458571400165,1189.5364006668756,None,1189.5364006668756,None,None,0.008220738708587305,None,,NENA_033,001,2021_Mar_02_1033,test7,3.2.4,99.98402986220813,
170,111,Huset är alltför stor för endast en person. ,4,,0,,inc,1,no,174,199,,,,,,,,,,,,,0,65,65,65,,,,,,,,,,,,,,,,,,,,,,,,,,,,,,,,,,,,,,,,,,,,,,,,,,,,,,,,,,,,,,,,,,,,,,,,,,,,,,,,,,,,,,,,,,,,,1195.03686740295,None,1195.5375727029955,None,1195.5375727029955,None,left,0,1.7647518043049786,1195.5375727029955,None,,,,,,,,,,,,,1197.317571368731,None,,,,,,,,,,,,,,,,,,,,,,,,,,,,,,,,,1189.5464455636015,None,1189.5464455636015,None,1190.0465212574677,None,1194.5473660779867,1194.5473660779867,0.009873815759419813,None,1194.5473660779867,1194.5473660779867,1198.8181544039394,None,1198.8181544039394,None,None,0.007547833070020715,None,,NENA_033,001,2021_Mar_02_1033,test7,3.2.4,99.98402986220813,
180,40,Fatet som med sina präglade mönster runt kanten såg väldigt inbjudande ut var otroligt kladdigt efter kalaset.  ,15,,0,,cor,1,no,181,199,,,,,,,,,,,,,0,66,66,66,,,,,,,,,,,,,,,,,,,,,,,,,,,,,,,,,,,,,,,,,,,,,,,,,,,,,,,,,,,,,,,,,,,,,,,,,,,,,,,,,,,,,,,,,,,,,1208.8194329246503,None,1209.320115131653,None,1209.320115131653,None,left,1,3.3338118725187087,1209.320115131653,None,,,,,,,,,,,,,1212.6704366060662,None,,,,,,,,,,,,,,,,,,,,,,,,,,,,,,,,,1198.8281749246748,None,1198.8281749246748,None,1199.3282480526473,None,1208.3299287130562,1208.3299287130562,0.00987124986568233,None,1208.3299287130562,1208.3299287130562,1214.1710045666491,None,1214.1710045666491,None,None,0.007734822577731393,None,,NENA_033,001,2021_Mar_02_1033,test7,3.2.4,99.98402986220813,
170,66,Kyrkan är helt renoverad och har öppnat igen för besökare.,4,,0,,cor,1,no,171,199,,,,,,,,,,,,,0,67,67,67,,,,,,,,,,,,,,,,,,,,,,,,,,,,,,,,,,,,,,,,,,,,,,,,,,,,,,,,,,,,,,,,,,,,,,,,,,,,,,,,,,,,,,,,,,,,,1220.6715986352006,None,1221.1723058596676,None,1221.1723058596676,None,left,1,0.45758930432839406,1221.1723058596676,None,,,,,,,,,,,,,1221.6426778052114,None,,,,,,,,,,,,,,,,,,,,,,,,,,,,,,,,,1214.1810241251746,None,1214.1810241251746,None,1214.6811328549225,None,1220.1821357986441,1220.1821357986441,0.009873495023384748,None,1220.1821357986441,1220.1821357986441,1223.1427094939995,None,1223.1427094939995,None,None,0.008082501182798296,None,,NENA_033,001,2021_Mar_02_1033,test7,3.2.4,99.98402986220813,
130,18,Konstnärer målar ofta tavlor för privata samlingar.,3,,4,,cor,1,no,131,132,,,,,,,,,,,,,0,68,68,68,,,,,,,,,,,,,,,,,,,,,,,,,,,,,,,,,,,,,,,,,,,,,,,,,,,,,,,,,,,,,,,,,,,,,,,,,,,,,,,,,,,,,,,,,,,,,1228.142983146568,None,1228.6437153884985,None,1228.6437153884985,None,left,1,0.9620709585087752,1228.6437153884985,None,,,,,,,,,,,,,1229.623682493741,None,,,,,,,,,,,,,,,,,,,,,,,,,,,,,,,,,1223.1527030728498,None,1223.1527030728498,None,1223.6528018597596,None,1227.6535328187433,1227.6535328187433,0.009877343863081478,None,1227.6535328187433,1227.6535328187433,1231.1241308195272,None,1231.1241308195272,None,None,0.008117461484289379,None,,NENA_033,001,2021_Mar_02_1033,test7,3.2.4,99.98402986220813,
150,1,Pojken älskade hunden som katten ville inte vara nära.  ,6,,7,,inc,1,no,153,154,,,,,,,,,,,,,0,69,69,69,,,,,,,,,,,,,,,,,,,,,,,,,,,,,,,,,,,,,,,,,,,,,,,,,,,,,,,,,,,,,,,,,,,,,,,,,,,,,,,,,,,,,,,,,,,,,1237.1246851167257,None,1237.6253865679305,None,1237.6253865679305,None,right,1,1.7402279540019663,1237.6253865679305,None,,,,,,,,,,,,,1239.3754306692294,None,,,,,,,,,,,,,,,,,,,,,,,,,,,,,,,,,1231.134137548583,None,1231.134137548583,None,1231.6342077899249,None,1236.6352001493347,1236.6352001493347,0.009873174285530695,None,1236.6352001493347,1236.6352001493347,1240.8759960639186,None,1240.8759960639186,None,None,0.00756386990633473,None,,NENA_033,001,2021_Mar_02_1033,test7,3.2.4,99.98402986220813,
170,104,Brödet är väldigt torrt och ska slängas.  ,4,,0,,cor,1,no,173,199,,,,,,,,,,,,,0,70,70,70,,,,,,,,,,,,,,,,,,,,,,,,,,,,,,,,,,,,,,,,,,,,,,,,,,,,,,,,,,,,,,,,,,,,,,,,,,,,,,,,,,,,,,,,,,,,,1245.8762963376353,None,1246.376996826631,None,1246.376996826631,None,left,1,0.876580831105457,1246.376996826631,None,,,,,,,,,,,,,1247.2669273614724,None,,,,,,,,,,,,,,,,,,,,,,,,,,,,,,,,,1240.8859893220329,None,1240.8859893220329,None,1241.3860525071664,None,1245.3868120117181,1245.3868120117181,0.009871891339571448,None,1245.3868120117181,1245.3868120117181,1248.7674866621633,None,1248.7674866621633,None,None,0.007679014388486394,None,,NENA_033,001,2021_Mar_02_1033,test7,3.2.4,99.98402986220813,
170,21,Fästningen är verkligen vackert och besöks av många turister. ,4,,0,,inc,1,no,172,199,,,,,,,,,,,,,0,71,71,71,,,,,,,,,,,,,,,,,,,,,,,,,,,,,,,,,,,,,,,,,,,,,,,,,,,,,,,,,,,,,,,,,,,,,,,,,,,,,,,,,,,,,,,,,,,,,1254.7679623788658,None,1255.2686554909164,None,1255.2686554909164,None,left,0,0.6408027783490979,1255.2686554909164,None,,,,,,,,,,,,,1255.9191464426126,None,,,,,,,,,,,,,,,,,,,,,,,,,,,,,,,,,1248.7774600346006,None,1248.7774600346006,None,1249.2775318796262,None,1254.2784835054722,1254.2784835054722,0.009876060917122231,None,1254.2784835054722,1254.2784835054722,1257.419038931664,None,1257.419038931664,None,None,0.007881719994657033,None,,NENA_033,001,2021_Mar_02_1033,test7,3.2.4,99.98402986220813,
170,10,Leksaken är väldigt farlig för småbarn.  ,4,,0,,cor,1,no,171,199,,,,,,,,,,,,,0,72,72,72,,,,,,,,,,,,,,,,,,,,,,,,,,,,,,,,,,,,,,,,,,,,,,,,,,,,,,,,,,,,,,,,,,,,,,,,,,,,,,,,,,,,,,,,,,,,,1261.9192866045591,None,1262.419966887141,None,1262.419966887141,None,right,0,2.721393652363986,1262.419966887141,None,,,,,,,,,,,,,1265.150545797675,None,,,,,,,,,,,,,,,,,,,,,,,,,,,,,,,,,1257.4290896016514,None,1257.4290896016514,None,1257.929083186917,None,1261.429752885187,1261.429752885187,0.009876060917122231,None,1261.429752885187,1261.429752885187,1266.6507404207164,None,1266.6507404207164,None,None,0.008188023562070157,None,,NENA_033,001,2021_Mar_02_1033,test7,3.2.4,99.98402986220813,
160,37,Den tuffa bostadsmarknaden ställde väldigt höga krav som många unga bostadssökande utan hjälp från föräldrar kunde inte klara av.,16,,17,,inc,1,no,163,164,,,,,,,,,,,,,0,73,73,73,,,,,,,,,,,,,,,,,,,,,,,,,,,,,,,,,,,,,,,,,,,,,,,,,,,,,,,,,,,,,,,,,,,,,,,,,,,,,,,,,,,,,,,,,,,,,1277.6521825171544,None,1278.152915721295,None,1278.152915721295,None,left,0,0.7243761831177835,1278.152915721295,None,,,,,,,,,,,,,1278.8931683720234,None,,,,,,,,,,,,,,,,,,,,,,,,,,,,,,,,,1266.660758696295,None,1266.660758696295,None,1267.1608478611029,None,1277.162740207747,1277.162740207747,0.009866438815151923,None,1277.162740207747,1277.162740207747,1280.3932937159339,None,1280.3932937159339,None,None,0.00813125316381047,None,,NENA_033,001,2021_Mar_02_1033,test7,3.2.4,99.98402986220813,
180,11,Lyset som satt på den fina gamla damcykeln med den mjuka sadeln var väldigt stark och hade ett klart sken.,15,,0,,inc,1,no,182,199,,,,,,,,,,,,,0,74,74,74,,,,,,,,,,,,,,,,,,,,,,,,,,,,,,,,,,,,,,,,,,,,,,,,,,,,,,,,,,,,,,,,,,,,,,,,,,,,,,,,,,,,,,,,,,,,,1291.8948275430735,None,1292.395552087322,None,1292.395552087322,None,left,0,0.6813939346120605,1292.395552087322,None,,,,,,,,,,,,,1293.0954724163216,None,,,,,,,,,,,,,,,,,,,,,,,,,,,,,,,,,1280.4033142366693,None,1280.4033142366693,None,1280.9033649130702,None,1291.405366630936,1291.405366630936,0.009869325445833965,None,1291.405366630936,1291.405366630936,1294.5959178554772,None,1294.5959178554772,None,None,0.008125479902446386,None,,NENA_033,001,2021_Mar_02_1033,test7,3.2.4,99.98402986220813,
170,35,Strandbadet var helt tom och solen strålade.  ,4,,0,,inc,1,no,174,199,,,,,,,,,,,,,0,75,75,75,,,,,,,,,,,,,,,,,,,,,,,,,,,,,,,,,,,,,,,,,,,,,,,,,,,,,,,,,,,,,,,,,,,,,,,,,,,,,,,,,,,,,,,,,,,,,1299.596479208884,None,1300.0969773130087,None,1300.0969773130087,None,left,0,0.7319253632822438,1300.0969773130087,None,,,,,,,,,,,,,1300.8468401980613,None,,,,,,,,,,,,,,,,,,,,,,,,,,,,,,,,,1294.605925546744,None,1294.605925546744,None,1295.1059970710326,None,1299.1068017994608,1299.1068017994608,0.009870287655758148,None,1299.1068017994608,1299.1068017994608,1302.3473545956117,None,1302.3473545956117,None,None,0.008193155350454617,None,,NENA_033,001,2021_Mar_02_1033,test7,3.2.4,99.98402986220813,
150,47,Djuren fick rättigheter men djurrättsaktivisterna inte hade krävt dessa från början. ,6,,7,,inc,1,no,157,158,,,,,,,,,,,,,0,76,76,76,,,,,,,,,,,,,,,,,,,,,,,,,,,,,,,,,,,,,,,,,,,,,,,,,,,,,,,,,,,,,,,,,,,,,,,,,,,,,,,,,,,,,,,,,,,,,1309.3480798454816,None,1309.8488085593085,None,1309.8488085593085,None,left,0,1.7079275211990534,1309.8488085593085,None,,,,,,,,,,,,,1311.5688599285008,None,,,,,,,,,,,,,,,,,,,,,,,,,,,,,,,,,1302.3573821725545,None,1302.3573821725545,None,1302.8574527346332,None,1308.8585849352526,1308.8585849352526,0.009872532813460566,None,1308.8585849352526,1308.8585849352526,1313.0693881177308,None,1313.0693881177308,None,None,0.007772669511723507,None,,NENA_033,001,2021_Mar_02_1033,test7,3.2.4,99.98402986220813,
170,24,Vinet är ganska dyrt att importera.  ,4,,0,,cor,1,no,173,199,,,,,,,,,,,,,0,77,77,77,,,,,,,,,,,,,,,,,,,,,,,,,,,,,,,,,,,,,,,,,,,,,,,,,,,,,,,,,,,,,,,,,,,,,,,,,,,,,,,,,,,,,,,,,,,,,1317.56964412978,None,1318.0703173561546,None,1318.0703173561546,None,left,1,1.3503666982915092,1318.0703173561546,None,,,,,,,,,,,,,1319.430937365892,None,,,,,,,,,,,,,,,,,,,,,,,,,,,,,,,,,1313.0793977334174,None,1313.0793977334174,None,1313.5794731065466,None,1317.0801277301912,1317.0801277301912,0.00987477797025349,None,1317.0801277301912,1317.0801277301912,1320.9308494198835,None,1320.9308494198835,None,None,0.007910907037512516,None,,NENA_033,001,2021_Mar_02_1033,test7,3.2.4,99.98402986220813,
150,74,Fotografen publicerade bilder som tjejen inte hade godkänt.  ,6,,7,,cor,1,no,151,152,,,,,,,,,,,,,0,78,78,78,,,,,,,,,,,,,,,,,,,,,,,,,,,,,,,,,,,,,,,,,,,,,,,,,,,,,,,,,,,,,,,,,,,,,,,,,,,,,,,,,,,,,,,,,,,,,1326.4312433487225,None,1326.9319752699162,None,1326.9319752699162,None,left,1,1.2725232550155852,1326.9319752699162,None,,,,,,,,,,,,,1328.2219555830957,None,,,,,,,,,,,,,,,,,,,,,,,,,,,,,,,,,1320.940840753577,None,1320.940840753577,None,1321.440919013337,None,1325.941792379424,1325.941792379424,0.009874457234218426,None,1325.941792379424,1325.941792379424,1329.7224539438107,None,1329.7224539438107,None,None,0.008120989588860539,None,,NENA_033,001,2021_Mar_02_1033,test7,3.2.4,99.98402986220813,
160,41,Biljardspelarna från Tyskland hade en vinnande strategi som motståndarna från den andra sidan av Atlanten kunde inte överträffa.,16,,17,,inc,1,no,163,164,,,,,,,,,,,,,0,79,79,79,,,,,,,,,,,,,,,,,,,,,,,,,,,,,,,,,,,,,,,,,,,,,,,,,,,,,,,,,,,,,,,,,,,,,,,,,,,,,,,,,,,,,,,,,,,,,1340.2238084791238,None,1340.7245410417913,None,1340.7245410417913,None,left,0,0.6637781117715349,1340.7245410417913,None,,,,,,,,,,,,,1341.4044079488817,None,,,,,,,,,,,,,,,,,,,,,,,,,,,,,,,,,1329.732485690331,None,1329.732485690331,None,1330.2324930672753,None,1339.7343565476153,1339.7343565476153,0.009869004709798901,None,1339.7343565476153,1339.7343565476153,1342.904951533474,None,1342.904951533474,None,None,0.008047540879488224,None,,NENA_033,001,2021_Mar_02_1033,test7,3.2.4,99.98402986220813,
170,83,Materialet är väldigt eftertraktad inom industrin.  ,4,,0,,inc,1,no,174,199,,,,,,,,,,,,,0,80,80,80,,,,,,,,,,,,,,,,,,,,,,,,,,,,,,,,,,,,,,,,,,,,,,,,,,,,,,,,,,,,,,,,,,,,,,,,,,,,,,,,,,,,,,,,,,,,,1347.4051414737592,None,1347.9058676216923,None,1347.9058676216923,None,left,0,0.5863788888527779,1347.9058676216923,None,,,,,,,,,,,,,1348.5062113873078,None,,,,,,,,,,,,,,,,,,,,,,,,,,,,,,,,,1342.9149528100065,None,1342.9149528100065,None,1343.4150198439806,None,1346.9156683736269,1346.9156683736269,0.009877023126136919,None,1346.9156683736269,1346.9156683736269,1350.0062722631378,None,1350.0062722631378,None,None,0.008044333512771118,None,,NENA_033,001,2021_Mar_02_1033,test7,3.2.4,99.98402986220813,
150,83,Sekreteraren skrev brev men brevbäraren inte hade tagit med sig dem. ,6,,7,,inc,1,no,157,158,,,,,,,,,,,,,0,81,81,81,,,,,,,,,,,,,,,,,,,,,,,,,,,,,,,,,,,,,,,,,,,,,,,,,,,,,,,,,,,,,,,,,,,,,,,,,,,,,,,,,,,,,,,,,,,,,1357.0069481195528,None,1357.507665607594,None,1357.507665607594,None,left,0,2.5204825676382825,1357.507665607594,None,,,,,,,,,,,,,1360.0378953641352,None,,,,,,,,,,,,,,,,,,,,,,,,,,,,,,,,,1350.0162793129307,None,1350.0162793129307,None,1350.5163623837411,None,1356.5174448701687,1356.5174448701687,0.00987317428644019,None,1356.5174448701687,1356.5174448701687,1361.538415534947,None,1361.538415534947,None,None,0.007701465959144116,None,,NENA_033,001,2021_Mar_02_1033,test7,3.2.4,99.98402986220813,
170,23,Oljudet är för hög för små barn.  ,4,,0,,inc,1,no,174,199,,,,,,,,,,,,,0,82,82,82,,,,,,,,,,,,,,,,,,,,,,,,,,,,,,,,,,,,,,,,,,,,,,,,,,,,,,,,,,,,,,,,,,,,,,,,,,,,,,,,,,,,,,,,,,,,,1366.5387097146663,None,1367.0394454847005,None,1367.0394454847005,None,right,1,3.940559467474486,1367.0394454847005,None,,,,,,,,,,,,,1370.990199568801,None,,,,,,,,,,,,,,,,,,,,,,,,,,,,,,,,,1361.5484030198,None,1361.5484030198,None,1362.0484880150311,None,1366.0492285961159,1366.0492285961159,0.009873495022475254,None,1366.0492285961159,1366.0492285961159,1372.4903861734251,None,1372.4903861734251,None,None,0.008166213466211047,None,,NENA_033,001,2021_Mar_02_1033,test7,3.2.4,99.98402986220813,
150,86,Sjön lagrar vatten som bönderna inte får använda.  ,6,,7,,cor,1,no,151,152,,,,,,,,,,,,,0,83,83,83,,,,,,,,,,,,,,,,,,,,,,,,,,,,,,,,,,,,,,,,,,,,,,,,,,,,,,,,,,,,,,,,,,,,,,,,,,,,,,,,,,,,,,,,,,,,,1377.9908471362382,None,1378.49154794597,None,1378.49154794597,None,left,1,0.6402966558061962,1378.49154794597,None,,,,,,,,,,,,,1379.1415609999544,None,,,,,,,,,,,,,,,,,,,,,,,,,,,,,,,,,1372.5003845633269,None,1372.5003845633269,None,1373.000528253377,None,1377.5013612066373,1377.5013612066373,0.009871891339571448,None,1377.5013612066373,1377.5013612066373,1380.641919840196,None,1380.641919840196,None,None,0.008350316342330188,None,,NENA_033,001,2021_Mar_02_1033,test7,3.2.4,99.98402986220813,
180,42,Vasen som hade prytt det lilla vardagsrummet sedan många år tillbaka var nu sprucken men fortfarande mycket omtyckt. ,14,,0,,cor,1,no,181,199,,,,,,,,,,,,,0,84,84,84,,,,,,,,,,,,,,,,,,,,,,,,,,,,,,,,,,,,,,,,,,,,,,,,,,,,,,,,,,,,,,,,,,,,,,,,,,,,,,,,,,,,,,,,,,,,,1391.1433016381302,None,1391.6439841658698,None,1391.6439841658698,None,left,1,0.8078010867839112,1391.6439841658698,None,,,,,,,,,,,,,1392.464122711303,None,,,,,,,,,,,,,,,,,,,,,,,,,,,,,,,,,1380.6519387572475,None,1380.6519387572475,None,1381.1520336953167,None,1390.6538121804256,1390.6538121804256,0.009869325445833965,None,1390.6538121804256,1390.6538121804256,1393.9643721803236,None,1393.9643721803236,None,None,0.008230681546592677,None,,NENA_033,001,2021_Mar_02_1033,test7,3.2.4,99.98402986220813,
150,3,Mannen lagade mat men kvinnan inte kunde äta den.  ,6,,7,,inc,1,no,157,158,,,,,,,,,,,,,0,85,85,85,,,,,,,,,,,,,,,,,,,,,,,,,,,,,,,,,,,,,,,,,,,,,,,,,,,,,,,,,,,,,,,,,,,,,,,,,,,,,,,,,,,,,,,,,,,,,1399.9649290434159,None,1400.465607722314,None,1400.465607722314,None,left,0,1.5301450820479658,1400.465607722314,None,,,,,,,,,,,,,1402.0056895486655,None,,,,,,,,,,,,,,,,,,,,,,,,,,,,,,,,,1393.9743718531713,None,1393.9743718531713,None,1394.4745113736449,None,1399.4754591506503,1399.4754591506503,0.009873815759419813,None,1399.4754591506503,1399.4754591506503,1403.506154873498,None,1403.506154873498,None,None,0.007552964858405176,None,,NENA_033,001,2021_Mar_02_1033,test7,3.2.4,99.98402986220813,
170,18,Kakan är för söt för morföräldrarna.  ,4,,0,,cor,1,no,171,199,,,,,,,,,,,,,0,86,86,86,,,,,,,,,,,,,,,,,,,,,,,,,,,,,,,,,,,,,,,,,,,,,,,,,,,,,,,,,,,,,,,,,,,,,,,,,,,,,,,,,,,,,,,,,,,,,1408.0064211491222,None,1408.5071367127434,None,1408.5071367127434,None,right,0,2.480343650150644,1408.5071367127434,None,,,,,,,,,,,,,1410.9979613974115,None,,,,,,,,,,,,,,,,,,,,,,,,,,,,,,,,,1403.5162109960088,None,1403.5162109960088,None,1404.0162886142957,None,1407.5169316914175,1407.5169316914175,0.009875740179268178,None,1407.5169316914175,1407.5169316914175,1412.4978561316198,None,1412.4978561316198,None,None,0.0078916628335719,None,,NENA_033,001,2021_Mar_02_1033,test7,3.2.4,99.98402986220813,
160,5,Den nya telefonen kräver en typ av adapter som de äldre modellerna av samma märke har inte krävt.,16,,17,,inc,1,yes,163,164,,,,,,,,,,,,,0,87,87,87,,,,,,,,,,,,,,,,,,,,,,,,,,,,,,,,,,,,,,,,,,,,,,,,,,,,,,,,,,,,,,,,,,,,,,,,,,,,,,,,,,,,,,,,,,,,,1422.9992048936724,None,1423.4999262305541,None,1423.4999262305541,None,left,0,0.7193775013456616,1423.4999262305541,None,,,,,,,,,,,,,1424.2305394599175,None,,,,,,,,,,,,,,,,,,,,,,,,,,,,,,,,,1412.5078676717271,None,1412.5078676717271,None,1413.0079683830568,None,1422.5097170396516,1422.5097170396516,0.009874457233308931,None,1422.5097170396516,1422.5097170396516,1425.7300545059975,None,1425.7300545059975,None,space,0.0077534253086923854,None,2.9844862856180043,NENA_033,001,2021_Mar_02_1033,test7,3.2.4,99.98402986220813,
170,88,Skrovet var för smalt för det öppna havet. ,4,,0,,cor,1,no,173,199,,,,,,,,,,,,,0,88,88,88,,,,,,,,,,,,,,,,,,,,,,,,,,,,,,,,,,,,,,,,,,,,,,,,,,,,,,,,,,,,,,,,,,,,,,,,,,,,,,,,,,,,,,,,,,,,,1434.2212987142943,None,1434.7219882982413,None,1434.7219882982413,None,left,1,2.2252139474285286,1434.7219882982413,None,,,,,,,,,,,,,1436.9621938006726,None,,,,,,,,,,,,,,,,,,,,,,,,,,,,,,,,,1428.7308579514797,None,1428.7308579514797,None,1429.230961228704,None,1433.731806690696,1433.731806690696,0.009870608392702707,None,1433.731806690696,1433.731806690696,1438.4626828600217,None,1438.4626828600217,None,None,0.007551361174591875,None,,NENA_033,001,2021_Mar_02_1033,test7,3.2.4,99.98402986220813,
180,45,Citronen som den här gången inte köpts i affären utan plockats från gården var otroligt surt men smakade ändå bra. ,16,,0,,inc,1,no,182,199,,,,,,,,,,,,,0,89,89,89,,,,,,,,,,,,,,,,,,,,,,,,,,,,,,,,,,,,,,,,,,,,,,,,,,,,,,,,,,,,,,,,,,,,,,,,,,,,,,,,,,,,,,,,,,,,,1449.964200650326,None,1450.4649130065795,None,1450.4649130065795,None,left,0,1.642041142823473,1450.4649130065795,None,,,,,,,,,,,,,1452.1249218204243,None,,,,,,,,,,,,,,,,,,,,,,,,,,,,,,,,,1438.472684778028,None,1438.472684778028,None,1438.9727838856738,None,1449.4747297953504,1449.4747297953504,0.009872212076516007,None,1449.4747297953504,1449.4747297953504,1453.6254788759584,None,1453.6254788759584,None,None,0.00771076732326037,None,,NENA_033,001,2021_Mar_02_1033,test7,3.2.4,99.98402986220813,
170,48,Arbetet var ganska välbetalt och det fanns många sökande. ,4,,0,,cor,1,no,173,199,,,,,,,,,,,,,0,90,90,90,,,,,,,,,,,,,,,,,,,,,,,,,,,,,,,,,,,,,,,,,,,,,,,,,,,,,,,,,,,,,,,,,,,,,,,,,,,,,,,,,,,,,,,,,,,,,1459.6260091179033,None,1460.1266403277673,None,1460.1266403277673,None,left,1,0.8922510650063487,1460.1266403277673,None,,,,,,,,,,,,,1461.03666405587,None,,,,,,,,,,,,,,,,,,,,,,,,,,,,,,,,,1453.635517037214,None,1453.635517037214,None,1454.1355837504511,None,1459.1365186979888,1459.1365186979888,0.009872532812551071,None,1459.1365186979888,1459.1365186979888,1462.537192245099,None,1462.537192245099,None,None,0.008032145517063327,None,,NENA_033,001,2021_Mar_02_1033,test7,3.2.4,99.98402986220813,
160,1,En kritisk journalist publicerade en uppmärksammad artikel som många äldre på landsbygden i norr kunde inte förstå.,15,,16,,inc,1,no,163,164,,,,,,,,,,,,,0,91,91,91,,,,,,,,,,,,,,,,,,,,,,,,,,,,,,,,,,,,,,,,,,,,,,,,,,,,,,,,,,,,,,,,,,,,,,,,,,,,,,,,,,,,,,,,,,,,,1472.5384383714013,None,1473.0391064659875,None,1473.0391064659875,None,left,0,1.7876174457678644,1473.0391064659875,None,,,,,,,,,,,,,1474.8397708400285,None,,,,,,,,,,,,,,,,,,,,,,,,,,,,,,,,,1462.5471415622828,None,1462.5471415622828,None,1463.0472624800263,None,1472.0489235754962,1472.0489235754962,0.009875098707198049,None,1472.0489235754962,1472.0489235754962,1476.3397377399992,None,1476.3397377399992,None,None,0.007967677435772202,None,,NENA_033,001,2021_Mar_02_1033,test7,3.2.4,99.98402986220813,
180,39,Hjulet som alldeles nyss hade rullat utan några som helst problem var fullständigt förstörd efter krocken.  ,14,,0,,inc,1,no,182,199,,,,,,,,,,,,,0,92,92,92,,,,,,,,,,,,,,,,,,,,,,,,,,,,,,,,,,,,,,,,,,,,,,,,,,,,,,,,,,,,,,,,,,,,,,,,,,,,,,,,,,,,,,,,,,,,,1485.84087257066,None,1486.3415676071304,None,1486.3415676071304,None,left,0,1.749062646937091,1486.3415676071304,None,,,,,,,,,,,,,1488.1016369760687,None,,,,,,,,,,,,,,,,,,,,,,,,,,,,,,,,,1476.3497399787416,None,1476.3497399787416,None,1476.849813748187,None,1485.3513196070849,1485.3513196070849,0.009870929128737771,None,1485.3513196070849,1485.3513196070849,1489.602171259296,None,1489.602171259296,None,None,0.007821742228770745,None,,NENA_033,001,2021_Mar_02_1033,test7,3.2.4,99.98402986220813,
180,46,Lekparken som i utkanten nyligen hade fått en ganska stor grill installerad blev plötsligt populär bland de vuxna. ,15,,0,,cor,1,no,181,199,,,,,,,,,,,,,0,93,93,93,,,,,,,,,,,,,,,,,,,,,,,,,,,,,,,,,,,,,,,,,,,,,,,,,,,,,,,,,,,,,,,,,,,,,,,,,,,,,,,,,,,,,,,,,,,,,1500.1035209835586,None,1500.6042320568654,None,1500.6042320568654,None,left,1,0.6381599077813007,1500.6042320568654,None,,,,,,,,,,,,,1501.2541033452194,None,,,,,,,,,,,,,,,,,,,,,,,,,,,,,,,,,1489.6121904970837,None,1489.6121904970837,None,1490.1122896047304,None,1499.6140376198514,1499.6140376198514,0.009870287655758148,None,1499.6140376198514,1499.6140376198514,1502.754626081925,None,1502.754626081925,None,None,0.007691843858083303,None,,NENA_033,001,2021_Mar_02_1033,test7,3.2.4,99.98402986220813,
170,118,Marken var hemskt hård att ligga på.  ,4,,0,,cor,1,no,171,199,,,,,,,,,,,,,0,94,94,94,,,,,,,,,,,,,,,,,,,,,,,,,,,,,,,,,,,,,,,,,,,,,,,,,,,,,,,,,,,,,,,,,,,,,,,,,,,,,,,,,,,,,,,,,,,,,1507.754961636681,None,1508.2556650123065,None,1508.2556650123065,None,left,1,4.77853963439793,1508.2556650123065,None,,,,,,,,,,,,,1513.0464070751955,None,,,,,,,,,,,,,,,,,,,,,,,,,,,,,,,,,1502.7646328109818,None,1502.7646328109818,None,1503.2647123536876,None,1507.2654641605582,1507.2654641605582,0.009877023126136919,None,1507.2654641605582,1507.2654641605582,1514.5468101771044,None,1514.5468101771044,None,None,0.00837629601755907,None,,NENA_033,001,2021_Mar_02_1033,test7,3.2.4,99.98402986220813,
150,64,Pojken målade bilder men föräldrarna kunde inte tolka dem.  ,6,,7,,cor,1,no,155,156,,,,,,,,,,,,,0,95,95,95,,,,,,,,,,,,,,,,,,,,,,,,,,,,,,,,,,,,,,,,,,,,,,,,,,,,,,,,,,,,,,,,,,,,,,,,,,,,,,,,,,,,,,,,,,,,,1520.547316043058,None,1521.0480277578386,None,1521.0480277578386,None,left,1,2.458056617728289,1521.0480277578386,None,,,,,,,,,,,,,1523.5188776010941,None,,,,,,,,,,,,,,,,,,,,,,,,,,,,,,,,,1514.556828131946,None,1514.556828131946,None,1515.056907674652,None,1520.057800605679,1520.057800605679,0.009875098707198049,None,1520.057800605679,1520.057800605679,1525.0187630339383,None,1525.0187630339383,None,None,0.00785734400506044,None,,NENA_033,001,2021_Mar_02_1033,test7,3.2.4,99.98402986220813,
170,41,Teorin var för enkelt för forskningsfrågan.  ,4,,0,,inc,1,no,172,199,,,,,,,,,,,,,0,96,96,96,,,,,,,,,,,,,,,,,,,,,,,,,,,,,,,,,,,,,,,,,,,,,,,,,,,,,,,,,,,,,,,,,,,,,,,,,,,,,,,,,,,,,,,,,,,,,1529.5190110275694,None,1530.019683933207,None,1530.019683933207,None,left,0,1.0623313325777417,1530.019683933207,None,,,,,,,,,,,,,1531.0997536100517,None,,,,,,,,,,,,,,,,,,,,,,,,,,,,,,,,,1525.0287758569925,None,1525.0287758569925,None,1525.5288566826453,None,1529.029519645445,1529.029519645445,0.00987638165406679,None,1529.029519645445,1529.029519645445,1532.6001887856332,None,1532.6001887856332,None,None,0.007952923547236423,None,,NENA_033,001,2021_Mar_02_1033,test7,3.2.4,99.98402986220813,
180,21,Krukan som han hade använt för att sätta den nyligen inköpta rosen i var nu trasigt och blomman låg på golvet.,16,,0,,inc,1,no,182,199,,,,,,,,,,,,,0,97,97,97,,,,,,,,,,,,,,,,,,,,,,,,,,,,,,,,,,,,,,,,,,,,,,,,,,,,,,,,,,,,,,,,,,,,,,,,,,,,,,,,,,,,,,,,,,,,,1544.601788684537,None,1545.1025039274214,None,1545.1025039274214,None,left,0,3.5792941354575305,1545.1025039274214,None,,,,,,,,,,,,,1548.6929641910278,None,,,,,,,,,,,,,,,,,,,,,,,,,,,,,,,,,1532.6101688935419,None,1532.6101688935419,None,1533.1102676804508,None,1544.1123203954553,1544.1123203954553,0.00987477797025349,None,1544.1123203954553,1544.1123203954553,1550.193422459653,None,1550.193422459653,None,None,0.008431141995970393,None,,NENA_033,001,2021_Mar_02_1033,test7,3.2.4,99.98402986220813,
140,61,Fotografer skannar gärna bilder av analogt film.,3,,4,,inc,1,no,137,138,,,,,,,,,,,,,0,98,98,98,,,,,,,,,,,,,,,,,,,,,,,,,,,,,,,,,,,,,,,,,,,,,,,,,,,,,,,,,,,,,,,,,,,,,,,,,,,,,,,,,,,,,,,,,,,,,1555.1937439019925,None,1555.694428033415,None,1555.694428033415,None,left,0,2.723180476627931,1555.694428033415,None,,,,,,,,,,,,,1558.4346643265712,None,,,,,,,,,,,,,,,,,,,,,,,,,,,,,,,,,1550.2034445840713,None,1550.2034445840713,None,1550.7035119387824,None,1554.7042942156418,1554.7042942156418,0.00987317428644019,None,1554.7042942156418,1554.7042942156418,1559.9352249102099,None,1559.9352249102099,None,None,0.007803139498719247,None,,NENA_033,001,2021_Mar_02_1033,test7,3.2.4,99.98402986220813,
160,27,Fruktståndet på torget har solmogna apelsiner från Spanien som de förbipasserande resenärerna från landsbygden i söder kan inte motstå.,17,,18,,inc,1,no,163,164,,,,,,,,,,,,,0,99,99,99,,,,,,,,,,,,,,,,,,,,,,,,,,,,,,,,,,,,,,,,,,,,,,,,,,,,,,,,,,,,,,,,,,,,,,,,,,,,,,,,,,,,,,,,,,,,,1570.9367074194738,None,1571.4373832117421,None,1571.4373832117421,None,left,0,1.1960779030996491,1571.4373832117421,None,,,,,,,,,,,,,1572.647323355855,None,,,,,,,,,,,,,,,,,,,,,,,,,,,,,,,,,1559.9452528078896,None,1559.9452528078896,None,1560.4453349164892,None,1570.447209622615,1570.447209622615,0.00987285354949563,None,1570.447209622615,1570.447209622615,1574.1478457718235,None,1574.1478457718235,None,None,0.007797686974299722,None,,NENA_033,001,2021_Mar_02_1033,test7,3.2.4,99.98402986220813,
150,36,Säljarna satte priser men köparna kunde inte acceptera dem i år. ,6,,7,,cor,1,no,155,156,,,,,,,,,,,,,0,100,100,100,,,,,,,,,,,,,,,,,,,,,,,,,,,,,,,,,,,,,,,,,,,,,,,,,,,,,,,,,,,,,,,,,,,,,,,,,,,,,,,,,,,,,,,,,,,,,1581.1485915488443,None,1581.649302942888,None,1581.649302942888,None,left,1,1.2800769254945408,1581.649302942888,None,,,,,,,,,,,,,1582.9394776225195,None,,,,,,,,,,,,,,,,,,,,,,,,,,,,,,,,,1574.157904460229,None,1574.157904460229,None,1574.6579949079837,None,1580.6590834884096,1580.6590834884096,0.00986772176293016,None,1580.6590834884096,1580.6590834884096,1584.4397944462512,None,1584.4397944462512,None,None,0.008286489735837677,None,,NENA_033,001,2021_Mar_02_1033,test7,3.2.4,99.98402986220813,
140,9,Meteorologer förutspår ofta väder utifrån datormodell.,3,,4,,inc,1,no,131,132,,,,,,,,,,,,,0,101,101,101,,,,,,,,,,,,,,,,,,,,,,,,,,,,,,,,,,,,,,,,,,,,,,,,,,,,,,,,,,,,,,,,,,,,,,,,,,,,,,,,,,,,,,,,,,,,,1588.9400376288318,None,1589.4407371556167,None,1589.4407371556167,None,left,0,1.088537126236588,1589.4407371556167,None,,,,,,,,,,,,,1590.5408031632337,None,,,,,,,,,,,,,,,,,,,,,,,,,,,,,,,,,1584.4498152877227,None,1584.4498152877227,None,1584.9498656433884,None,1588.4505542651245,1588.4505542651245,0.00987477797025349,None,1588.4505542651245,1588.4505542651245,1592.0412130006139,None,1592.0412130006139,None,None,0.008366673915588763,None,,NENA_033,001,2021_Mar_02_1033,test7,3.2.4,99.98402986220813,
140,5,Sotare inspekterar ofta skorstenar på gamla husen.,3,,4,,inc,1,no,131,132,,,,,,,,,,,,,0,102,102,102,,,,,,,,,,,,,,,,,,,,,,,,,,,,,,,,,,,,,,,,,,,,,,,,,,,,,,,,,,,,,,,,,,,,,,,,,,,,,,,,,,,,,,,,,,,,,1597.0415443857923,None,1597.5422111974317,None,1597.5422111974317,None,right,1,1.8749793926663187,1597.5422111974317,None,,,,,,,,,,,,,1599.4332033708147,None,,,,,,,,,,,,,,,,,,,,,,,,,,,,,,,,,1592.0512158808292,None,1592.0512158808292,None,1592.551305687111,None,1596.5520202885214,1596.5520202885214,0.009875740180177672,None,1596.5520202885214,1596.5520202885214,1600.9328601183774,None,1600.9328601183774,None,None,0.007618074412675924,None,,NENA_033,001,2021_Mar_02_1033,test7,3.2.4,99.98402986220813,
160,14,Den unge chauffören begärde en stor summa pengar som det äldre lättretade paret från Paris inte kunde betala.,16,,17,,cor,1,no,161,162,,,,,,,,,,,,,0,103,103,103,,,,,,,,,,,,,,,,,,,,,,,,,,,,,,,,,,,,,,,,,,,,,,,,,,,,,,,,,,,,,,,,,,,,,,,,,,,,,,,,,,,,,,,,,,,,,1611.4242028569938,None,1611.9248783285252,None,1611.9248783285252,None,left,1,0.46810337472743413,1611.9248783285252,None,,,,,,,,,,,,,1612.4048483203983,None,,,,,,,,,,,,,,,,,,,,,,,,,,,,,,,,,1600.9428758280615,None,1600.9428758280615,None,1601.4429640306594,None,1610.9347178896037,1610.9347178896037,0.009875419443233113,None,1610.9347178896037,1610.9347178896037,1613.9052594407244,None,1613.9052594407244,None,None,0.008615244872999028,None,,NENA_033,001,2021_Mar_02_1033,test7,3.2.4,99.98402986220813,
170,6,Mangon var mycket saftig men smakade inget.  ,4,,0,,cor,1,no,171,199,,,,,,,,,,,,,0,104,104,104,,,,,,,,,,,,,,,,,,,,,,,,,,,,,,,,,,,,,,,,,,,,,,,,,,,,,,,,,,,,,,,,,,,,,,,,,,,,,,,,,,,,,,,,,,,,,1618.905579600118,None,1619.4062473739682,None,1619.4062473739682,None,left,1,0.49865130209491326,1619.4062473739682,None,,,,,,,,,,,,,1619.9161164428247,None,,,,,,,,,,,,,,,,,,,,,,,,,,,,,,,,,1613.915287659141,None,1613.915287659141,None,1614.4153800313165,None,1618.416131838187,1618.416131838187,0.009874457233308931,None,1618.416131838187,1618.416131838187,1621.4166677250973,None,1621.4166677250973,None,None,0.00874386029681773,None,,NENA_033,001,2021_Mar_02_1033,test7,3.2.4,99.98402986220813,
170,3,Häftet är oerhört tjock men lätt att läsa. ,4,,0,,inc,1,no,174,199,,,,,,,,,,,,,0,105,105,105,,,,,,,,,,,,,,,,,,,,,,,,,,,,,,,,,,,,,,,,,,,,,,,,,,,,,,,,,,,,,,,,,,,,,,,,,,,,,,,,,,,,,,,,,,,,,1626.9170780115096,None,1627.4177890848164,None,1627.4177890848164,None,left,0,3.431023323332738,1627.4177890848164,None,,,,,,,,,,,,,1630.8585865389364,None,,,,,,,,,,,,,,,,,,,,,,,,,,,,,,,,,1621.426666435736,None,1621.426666435736,None,1621.9267469406527,None,1626.4275568008693,1626.4275568008693,0.009875740179268178,None,1626.4275568008693,1626.4275568008693,1632.3586955252736,None,1632.3586955252736,None,None,0.008078973078227136,None,,NENA_033,001,2021_Mar_02_1033,test7,3.2.4,99.98402986220813,
130,28,Ormar äter gärna möss och andra gnagare.,3,,4,,cor,1,no,133,134,,,,,,,,,,,,,0,106,106,106,,,,,,,,,,,,,,,,,,,,,,,,,,,,,,,,,,,,,,,,,,,,,,,,,,,,,,,,,,,,,,,,,,,,,,,,,,,,,,,,,,,,,,,,,,,,,1637.3590307592926,None,1637.859735738602,None,1637.859735738602,None,left,1,0.5969481259671738,1637.859735738602,None,,,,,,,,,,,,,1638.469918423823,None,,,,,,,,,,,,,,,,,,,,,,,,,,,,,,,,,1632.3687141215883,None,1632.3687141215883,None,1632.8687542136781,None,1636.8695461126385,1636.8695461126385,0.009867080289041041,None,1636.8695461126385,1636.8695461126385,1639.9700745584573,None,1639.9700745584573,None,None,0.008137667897244683,None,,NENA_033,001,2021_Mar_02_1033,test7,3.2.4,99.98402986220813,
180,37,Tavlan som för en liten stund sedan auktionerades ut till en beslutsam konstkännare var otroligt vackert men kostade en förmögenhet. ,16,,0,,inc,1,no,182,199,,,,,,,,,,,,,0,107,107,107,,,,,,,,,,,,,,,,,,,,,,,,,,,,,,,,,,,,,,,,,,,,,,,,,,,,,,,,,,,,,,,,,,,,,,,,,,,,,,,,,,,,,,,,,,,,,1651.4716738158882,None,1651.9723807196174,None,1651.9723807196174,None,left,0,0.8761500816908665,1651.9723807196174,None,,,,,,,,,,,,,1652.8625745793056,None,,,,,,,,,,,,,,,,,,,,,,,,,,,,,,,,,1639.980121379604,None,1639.980121379604,None,1640.480150887382,None,1650.9821692835571,1650.9821692835571,0.0098657973421723,None,1650.9821692835571,1650.9821692835571,1654.3627531655106,None,1654.3627531655106,None,None,0.008148893682118796,None,,NENA_033,001,2021_Mar_02_1033,test7,3.2.4,99.98402986220813,
