trig_exp,trig_item,sentence,trig_w1,trig1,trig_w2,trig2,gram,task,paus,trig_1,trig_2,prac_trials.thisRepN,prac_trials.thisTrialN,prac_trials.thisN,prac_trials.thisIndex,trials_2.thisRepN,trials_2.thisTrialN,trials_2.thisN,trials_2.thisIndex,trials.thisRepN,trials.thisTrialN,trials.thisN,trials.thisIndex,exp_trials.thisRepN,exp_trials.thisTrialN,exp_trials.thisN,exp_trials.thisIndex,grating_1.started,grating_1.stopped,text_1.started,text_1.stopped,key_resp_1.keys,key_resp_1.rt,key_resp_1.started,key_resp_1.stopped,grating_2.started,grating_2.stopped,text_2.started,text_2.stopped,key_resp_2.keys,key_resp_2.rt,key_resp_2.started,key_resp_2.stopped,grating_3.started,grating_3.stopped,text_3.started,text_3.stopped,key_resp_3.keys,key_resp_3.rt,key_resp_3.started,key_resp_3.stopped,grating_4.started,grating_4.stopped,text_4.started,text_4.stopped,key_resp_4.keys,key_resp_4.rt,key_resp_4.started,key_resp_4.stopped,grating_5.started,grating_5.stopped,text_5.started,text_5.stopped,key_resp_5.keys,key_resp_5.rt,key_resp_5.started,key_resp_5.stopped,grating_6.started,grating_6.stopped,text_6.started,text_6.stopped,key_resp_6.keys,key_resp_6.rt,key_resp_6.started,key_resp_6.stopped,grating_7.started,grating_7.stopped,text_7.started,text_7.stopped,key_resp_7.keys,key_resp_7.rt,key_resp_7.started,key_resp_7.stopped,grating_8.started,grating_8.stopped,text_8.started,text_8.stopped,key_resp_8.keys,key_resp_8.rt,key_resp_8.started,key_resp_8.stopped,grating_9.started,grating_9.stopped,text_9.started,text_9.stopped,key_resp_9.keys,key_resp_9.rt,key_resp_9.started,key_resp_9.stopped,grating.started,grating.stopped,text.started,text.stopped,key_resp.keys,key_resp.rt,key_resp.started,key_resp.stopped,grating_14.started,grating_14.stopped,text_fix_4.started,text_fix_4.stopped,grating_16.started,grating_16.stopped,grating_40.started,grating_40.stopped,ISI_4.started,ISI_4.stopped,text_19.started,text_19.stopped,grating_24.started,grating_24.stopped,grating_35.started,grating_35.stopped,prompt.started,prompt.stopped,Button_Press.keys,Button_Press.corr,Button_Press.rt,Button_Press.started,Button_Press.stopped,grating_33.started,grating_33.stopped,grating_34.started,grating_34.stopped,Correct_Incorrect.started,Correct_Incorrect.stopped,Continue_text.started,Continue_text.stopped,Press_Bar.keys,Press_Bar.rt,Press_Bar.started,Press_Bar.stopped,grating_26.started,grating_26.stopped,grating_27.started,grating_27.stopped,text_10.started,text_10.stopped,key_resp_11.keys,key_resp_11.rt,key_resp_11.started,key_resp_11.stopped,grating_28.started,grating_28.stopped,text_11.started,text_11.stopped,key_resp_12.keys,key_resp_12.rt,key_resp_12.started,key_resp_12.stopped,grating_29.started,grating_29.stopped,text_12.started,text_12.stopped,key_resp_13.keys,key_resp_13.rt,key_resp_13.started,key_resp_13.stopped,grating_36.started,grating_36.stopped,text_14.started,text_14.stopped,key_resp_14.keys,key_resp_14.rt,key_resp_14.started,key_resp_14.stopped,grating_10.started,grating_10.stopped,text_fix.started,text_fix.stopped,grating_11.started,grating_11.stopped,grating_37.started,grating_37.stopped,ISI_2.started,ISI_2.stopped,text_15.started,text_15.stopped,grating_38.started,grating_38.stopped,text_fix_3.started,text_fix_3.stopped,key_resp_16.keys,key_resp_16.started,key_resp_16.stopped,key_resp_16.rt,participant,session,date,expName,psychopyVersion,frameRate,
,,,,,,,,,,,,,,,,,,,,,,,,,,,,14.605896497299,None,14.605896497299,None,space,2.9748647385649747,14.605896497299,None,,,,,,,,,,,,,,,,,,,,,,,,,,,,,,,,,,,,,,,,,,,,,,,,,,,,,,,,,,,,,,,,,,,,,,,,,,,,,,,,,,,,,,,,,,,,,,,,,,,,,,,,,,,,,,,,,,,,,,,,,,,,,,,,,,,,,,,,,,,,,,,,,,,,,,,,,,,,,,,,,,NENA_027,001,2021_Jan_25_1035,test7,3.2.4,99.96925109246924,
,,,,,,,,,,,,,,,,,,,,,,,,,,,,,,,,,,,,17.596699778147922,None,17.596699778147922,None,space,66.84680377606219,17.596699778147922,None,,,,,,,,,,,,,,,,,,,,,,,,,,,,,,,,,,,,,,,,,,,,,,,,,,,,,,,,,,,,,,,,,,,,,,,,,,,,,,,,,,,,,,,,,,,,,,,,,,,,,,,,,,,,,,,,,,,,,,,,,,,,,,,,,,,,,,,,,,,,,,,,,,,,,,,,,,NENA_027,001,2021_Jan_25_1035,test7,3.2.4,99.96925109246924,
,,,,,,,,,,,,,,,,,,,,,,,,,,,,,,,,,,,,,,,,,,,,84.45848470629244,None,84.45848470629244,None,space,13.744469187270624,84.45848470629244,None,,,,,,,,,,,,,,,,,,,,,,,,,,,,,,,,,,,,,,,,,,,,,,,,,,,,,,,,,,,,,,,,,,,,,,,,,,,,,,,,,,,,,,,,,,,,,,,,,,,,,,,,,,,,,,,,,,,,,,,,,,,,,,,,,,,,,,,,,,,,,,,,,,NENA_027,001,2021_Jan_25_1035,test7,3.2.4,99.96925109246924,
,,,,,,,,,,,,,,,,,,,,,,,,,,,,,,,,,,,,,,,,,,,,,,,,,,,,98.22089317289374,None,98.22089317289374,None,space,6.693908400368855,98.22089317289374,None,,,,,,,,,,,,,,,,,,,,,,,,,,,,,,,,,,,,,,,,,,,,,,,,,,,,,,,,,,,,,,,,,,,,,,,,,,,,,,,,,,,,,,,,,,,,,,,,,,,,,,,,,,,,,,,,,,,,,,,,,,,,,,,,,,,,,,,,,,NENA_027,001,2021_Jan_25_1035,test7,3.2.4,99.96925109246924,
,,,,,,,,,,,,,,,,,,,,,,,,,,,,,,,,,,,,,,,,,,,,,,,,,,,,,,,,,,,,104.9320952155831,None,104.9320952155831,None,space,12.11056269205892,104.9320952155831,None,,,,,,,,,,,,,,,,,,,,,,,,,,,,,,,,,,,,,,,,,,,,,,,,,,,,,,,,,,,,,,,,,,,,,,,,,,,,,,,,,,,,,,,,,,,,,,,,,,,,,,,,,,,,,,,,,,,,,,,,,,,,,,,,,,NENA_027,001,2021_Jan_25_1035,test7,3.2.4,99.96925109246924,
,,,,,,,,,,,,,,,,,,,,,,,,,,,,,,,,,,,,,,,,,,,,,,,,,,,,,,,,,,,,,,,,,,,,117.05420656727983,None,117.05420656727983,None,space,13.45221436175052,117.05420656727983,None,,,,,,,,,,,,,,,,,,,,,,,,,,,,,,,,,,,,,,,,,,,,,,,,,,,,,,,,,,,,,,,,,,,,,,,,,,,,,,,,,,,,,,,,,,,,,,,,,,,,,,,,,,,,,,,,,,,,,,,,,,NENA_027,001,2021_Jan_25_1035,test7,3.2.4,99.96925109246924,
,,,,,,,,,,,,,,,,,,,,,,,,,,,,,,,,,,,,,,,,,,,,,,,,,,,,,,,,,,,,,,,,,,,,,,,,,,,,130.5165968482779,None,130.5165968482779,None,space,7.349610677354576,130.5165968482779,None,,,,,,,,,,,,,,,,,,,,,,,,,,,,,,,,,,,,,,,,,,,,,,,,,,,,,,,,,,,,,,,,,,,,,,,,,,,,,,,,,,,,,,,,,,,,,,,,,,,,,,,,,,,,,,,,,,NENA_027,001,2021_Jan_25_1035,test7,3.2.4,99.96925109246924,
,,,,,,,,,,,,,,,,,,,,,,,,,,,,,,,,,,,,,,,,,,,,,,,,,,,,,,,,,,,,,,,,,,,,,,,,,,,,,,,,,,,,137.8779418901031,None,137.8779418901031,None,space,5.436271329193914,137.8779418901031,None,,,,,,,,,,,,,,,,,,,,,,,,,,,,,,,,,,,,,,,,,,,,,,,,,,,,,,,,,,,,,,,,,,,,,,,,,,,,,,,,,,,,,,,,,,,,,,,,,,,,,,,,,,NENA_027,001,2021_Jan_25_1035,test7,3.2.4,99.96925109246924,
,,,,,,,,,,,,,,,,,,,,,,,,,,,,,,,,,,,,,,,,,,,,,,,,,,,,,,,,,,,,,,,,,,,,,,,,,,,,,,,,,,,,,,,,,,,,143.3288832596554,None,143.3288832596554,None,space,2.113033304029159,143.3288832596554,None,,,,,,,,,,,,,,,,,,,,,,,,,,,,,,,,,,,,,,,,,,,,,,,,,,,,,,,,,,,,,,,,,,,,,,,,,,,,,,,,,,,,,,,,,,,,,,,,,,NENA_027,001,2021_Jan_25_1035,test7,3.2.4,99.96925109246924,
,,,,,,,,,,,,,,,,,,,,,,,,,,,,,,,,,,,,,,,,,,,,,,,,,,,,,,,,,,,,,,,,,,,,,,,,,,,,,,,,,,,,,,,,,,,,,,,,,,,,145.459089610119,None,145.459089610119,None,space,3.6468602893464777,145.459089610119,None,,,,,,,,,,,,,,,,,,,,,,,,,,,,,,,,,,,,,,,,,,,,,,,,,,,,,,,,,,,,,,,,,,,,,,,,,,,,,,,,,,,,,,,,,,NENA_027,001,2021_Jan_25_1035,test7,3.2.4,99.96925109246924,
199,1,Meningarna presenteras ord för ord.,99,99,99,99,cor,1,no,,,0,0,0,0,0,0,0,0,0,0,0,0,,,,,,,,,,,,,,,,,,,,,,,,,,,,,,,,,,,,,,,,,,,,,,,,,,,,,,,,,,,,,,,,,,,,,,,,,,,,,,,,,,,,,149.1792176726849,None,149.1792176726849,None,149.6299762240078,None,152.64047961239976,152.64047961239976,0.00992593937280617,None,152.64047961239976,152.64047961239976,153.12992378404215,None,153.64041001317855,None,153.64041001317855,None,left,1,1.025582043529539,153.64041001317855,None,154.68177760900016,None,155.01057234614473,None,155.01057234614473,None,155.01057234614473,None,space,4.439143499801503,155.01057234614473,None,,,,,,,,,,,,,,,,,,,,,,,,,,,,,,,,,,,,,,,,,,,,,,,,,,,,,,,NENA_027,001,2021_Jan_25_1035,test7,3.2.4,99.96925109246924,
199,1,Meningarna presenteras ord för ord.,99,99,99,99,cor,1,no,,,0,0,0,0,0,0,0,0,,,,,,,,,,,,,,,,,,,,,,,,,,,,,,,,,,,,,,,,,,,,,,,,,,,,,,,,,,,,,,,,,,,,,,,,,,,,,,,,,,,,,,,,,,,,,,,,,,,,,,,,,,,,,,,,,,,,,,,,,,,,,,,,,,,,,,,,,,,,,,,,,,,,,,,,,,,,,,,,,,,,,,,,,,,,,,,,,,NENA_027,001,2021_Jan_25_1035,test7,3.2.4,99.96925109246924,
199,1,Meningarna presenteras ord för ord.,99,99,99,99,cor,1,no,,,0,0,0,0,,,,,,,,,,,,,,,,,,,,,,,,,,,,,,,,,,,,,,,,,,,,,,,,,,,,,,,,,,,,,,,,,,,,,,,,,,,,,,,,,,,,,,,,,,,,,,,,,,,,,,,,,,,,,,,,,,,,,,,,,,,,,,,,159.47170310576075,None,,,,,,,,,,,,,,,,,,,,,,,,,,,,,,,,,,,,,,,,,,,,,,,,,,,,,NENA_027,001,2021_Jan_25_1035,test7,3.2.4,99.96925109246924,
199,2,Läs meningen noggrant och ange ditt svar när du ser frågetecknet.,99,99,99,99,cor,1,no,,,0,1,1,1,0,0,0,0,0,0,0,0,,,,,,,,,,,,,,,,,,,,,,,,,,,,,,,,,,,,,,,,,,,,,,,,,,,,,,,,,,,,,,,,,,,,,,,,,,,,,,,,,,,,,160.97200668024198,None,160.97200668024198,None,161.47209440091865,None,167.47315506738414,167.47315506738414,0.009932354047123226,None,167.47315506738414,167.47315506738414,167.96253669594807,None,168.4633354833186,None,168.4633354833186,None,left,1,1.8981558130908525,168.4633354833186,None,170.38364854510382,None,170.68369976628128,None,170.68369976628128,None,170.68369976628128,None,space,3.4136262444872045,170.68369976628128,None,,,,,,,,,,,,,,,,,,,,,,,,,,,,,,,,,,,,,,,,,,,,,,,,,,,,,,,NENA_027,001,2021_Jan_25_1035,test7,3.2.4,99.96925109246924,
199,2,Läs meningen noggrant och ange ditt svar när du ser frågetecknet.,99,99,99,99,cor,1,no,,,0,1,1,1,0,0,0,0,,,,,,,,,,,,,,,,,,,,,,,,,,,,,,,,,,,,,,,,,,,,,,,,,,,,,,,,,,,,,,,,,,,,,,,,,,,,,,,,,,,,,,,,,,,,,,,,,,,,,,,,,,,,,,,,,,,,,,,,,,,,,,,,,,,,,,,,,,,,,,,,,,,,,,,,,,,,,,,,,,,,,,,,,,,,,,,,,,NENA_027,001,2021_Jan_25_1035,test7,3.2.4,99.96925109246924,
199,2,Läs meningen noggrant och ange ditt svar när du ser frågetecknet.,99,99,99,99,cor,1,no,,,0,1,1,1,,,,,,,,,,,,,,,,,,,,,,,,,,,,,,,,,,,,,,,,,,,,,,,,,,,,,,,,,,,,,,,,,,,,,,,,,,,,,,,,,,,,,,,,,,,,,,,,,,,,,,,,,,,,,,,,,,,,,,,,,,,,,,,,174.11445704108337,None,,,,,,,,,,,,,,,,,,,,,,,,,,,,,,,,,,,,,,,,,,,,,,,,,,,,,NENA_027,001,2021_Jan_25_1035,test7,3.2.4,99.96925109246924,
199,3,I den här meningen finns det en misstag.,99,99,99,99,inc,1,no,,,0,2,2,2,0,0,0,0,0,0,0,0,,,,,,,,,,,,,,,,,,,,,,,,,,,,,,,,,,,,,,,,,,,,,,,,,,,,,,,,,,,,,,,,,,,,,,,,,,,,,,,,,,,,,175.6145579118438,None,175.6145579118438,None,176.11467032901783,None,180.6154473064944,180.6154473064944,0.009939089456565853,None,180.6154473064944,180.6154473064944,181.10485234862062,None,181.60563349563472,None,181.60563349563472,None,right,1,0.019719030832675344,181.60563349563472,None,181.63633926059993,None,181.93539813159714,None,181.93539813159714,None,181.93539813159714,None,space,9.209639588293612,181.93539813159714,None,,,,,,,,,,,,,,,,,,,,,,,,,,,,,,,,,,,,,,,,,,,,,,,,,,,,,,,NENA_027,001,2021_Jan_25_1035,test7,3.2.4,99.96925109246924,
199,3,I den här meningen finns det en misstag.,99,99,99,99,inc,1,no,,,0,2,2,2,0,0,0,0,,,,,,,,,,,,,,,,,,,,,,,,,,,,,,,,,,,,,,,,,,,,,,,,,,,,,,,,,,,,,,,,,,,,,,,,,,,,,,,,,,,,,,,,,,,,,,,,,,,,,,,,,,,,,,,,,,,,,,,,,,,,,,,,,,,,,,,,,,,,,,,,,,,,,,,,,,,,,,,,,,,,,,,,,,,,,,,,,,NENA_027,001,2021_Jan_25_1035,test7,3.2.4,99.96925109246924,
199,3,I den här meningen finns det en misstag.,99,99,99,99,inc,1,no,,,0,2,2,2,,,,,,,,,,,,,,,,,,,,,,,,,,,,,,,,,,,,,,,,,,,,,,,,,,,,,,,,,,,,,,,,,,,,,,,,,,,,,,,,,,,,,,,,,,,,,,,,,,,,,,,,,,,,,,,,,,,,,,,,,,,,,,,,191.15748828279447,None,,,,,,,,,,,,,,,,,,,,,,,,,,,,,,,,,,,,,,,,,,,,,,,,,,,,,NENA_027,001,2021_Jan_25_1035,test7,3.2.4,99.96925109246924,
199,4,I det här meningen finns det ett till misstag.,99,99,99,99,inc,1,no,,,0,3,3,3,0,0,0,0,0,0,0,0,,,,,,,,,,,,,,,,,,,,,,,,,,,,,,,,,,,,,,,,,,,,,,,,,,,,,,,,,,,,,,,,,,,,,,,,,,,,,,,,,,,,,192.65760166217024,None,192.65760166217024,None,193.15769900485975,None,198.15858711657438,198.15858711657438,0.009938447989043198,None,198.15858711657438,198.15858711657438,198.64792961562307,None,199.14872455418845,None,199.14872455418845,None,right,1,0.6120921108804396,199.14872455418845,None,199.778479151184,None,200.07909742960783,None,200.07909742960783,None,200.07909742960783,None,space,2.697682474242356,200.07909742960783,None,,,,,,,,,,,,,,,,,,,,,,,,,,,,,,,,,,,,,,,,,,,,,,,,,,,,,,,NENA_027,001,2021_Jan_25_1035,test7,3.2.4,99.96925109246924,
199,4,I det här meningen finns det ett till misstag.,99,99,99,99,inc,1,no,,,0,3,3,3,0,0,0,0,,,,,,,,,,,,,,,,,,,,,,,,,,,,,,,,,,,,,,,,,,,,,,,,,,,,,,,,,,,,,,,,,,,,,,,,,,,,,,,,,,,,,,,,,,,,,,,,,,,,,,,,,,,,,,,,,,,,,,,,,,,,,,,,,,,,,,,,,,,,,,,,,,,,,,,,,,,,,,,,,,,,,,,,,,,,,,,,,,NENA_027,001,2021_Jan_25_1035,test7,3.2.4,99.96925109246924,
199,4,I det här meningen finns det ett till misstag.,99,99,99,99,inc,1,no,,,0,3,3,3,,,,,,,,,,,,,,,,,,,,,,,,,,,,,,,,,,,,,,,,,,,,,,,,,,,,,,,,,,,,,,,,,,,,,,,,,,,,,,,,,,,,,,,,,,,,,,,,,,,,,,,,,,,,,,,,,,,,,,,,,,,,,,,,202.78987033055728,None,,,,,,,,,,,,,,,,,,,,,,,,,,,,,,,,,,,,,,,,,,,,,,,,,,,,,NENA_027,001,2021_Jan_25_1035,test7,3.2.4,99.96925109246924,
199,5,Ibland kan meningarna låta lite märkliga men ändå vara grammatiskt korrekta.,99,99,99,99,cor,1,no,,,0,4,4,4,0,0,0,0,0,0,0,0,,,,,,,,,,,,,,,,,,,,,,,,,,,,,,,,,,,,,,,,,,,,,,,,,,,,,,,,,,,,,,,,,,,,,,,,,,,,,,,,,,,,,204.28932780944342,None,204.28932780944342,None,204.78973016991495,None,210.79076998868732,210.79076998868732,0.009933957716384612,None,210.79076998868732,210.79076998868732,211.28019587850758,None,211.78093789600553,None,211.78093789600553,None,left,1,0.899746973155743,211.78093789600553,None,212.7010954019288,None,213.001182866019,None,213.001182866019,None,213.001182866019,None,space,2.439325676563385,213.001182866019,None,,,,,,,,,,,,,,,,,,,,,,,,,,,,,,,,,,,,,,,,,,,,,,,,,,,,,,,NENA_027,001,2021_Jan_25_1035,test7,3.2.4,99.96925109246924,
199,5,Ibland kan meningarna låta lite märkliga men ändå vara grammatiskt korrekta.,99,99,99,99,cor,1,no,,,0,4,4,4,0,0,0,0,,,,,,,,,,,,,,,,,,,,,,,,,,,,,,,,,,,,,,,,,,,,,,,,,,,,,,,,,,,,,,,,,,,,,,,,,,,,,,,,,,,,,,,,,,,,,,,,,,,,,,,,,,,,,,,,,,,,,,,,,,,,,,,,,,,,,,,,,,,,,,,,,,,,,,,,,,,,,,,,,,,,,,,,,,,,,,,,,,NENA_027,001,2021_Jan_25_1035,test7,3.2.4,99.96925109246924,
199,5,Ibland kan meningarna låta lite märkliga men ändå vara grammatiskt korrekta.,99,99,99,99,cor,1,no,,,0,4,4,4,,,,,,,,,,,,,,,,,,,,,,,,,,,,,,,,,,,,,,,,,,,,,,,,,,,,,,,,,,,,,,,,,,,,,,,,,,,,,,,,,,,,,,,,,,,,,,,,,,,,,,,,,,,,,,,,,,,,,,,,,,,,,,,,215.45226247181108,None,,,,,,,,,,,,,,,,,,,,,,,,,,,,,,,,,,,,,,,,,,,,,,,,,,,,,NENA_027,001,2021_Jan_25_1035,test7,3.2.4,99.96925109246924,
199,6,De gröna idéerna missade bussen i morse.,99,99,99,99,cor,1,no,,,0,5,5,5,0,0,0,0,0,0,0,0,,,,,,,,,,,,,,,,,,,,,,,,,,,,,,,,,,,,,,,,,,,,,,,,,,,,,,,,,,,,,,,,,,,,,,,,,,,,,,,,,,,,,216.95184728199,None,216.95184728199,None,217.45196547237174,None,221.45264029615282,221.45264029615282,0.009931391846293991,None,221.45264029615282,221.45264029615282,221.94207709091916,None,222.44277388496084,None,222.44277388496084,None,left,1,3.629450220681065,222.44277388496084,None,226.0831662577848,None,226.3839112260339,None,226.3839112260339,None,226.3839112260339,None,space,3.240316487222117,226.3839112260339,None,,,,,,,,,,,,,,,,,,,,,,,,,,,,,,,,,,,,,,,,,,,,,,,,,,,,,,,NENA_027,001,2021_Jan_25_1035,test7,3.2.4,99.96925109246924,
199,6,De gröna idéerna missade bussen i morse.,99,99,99,99,cor,1,no,,,0,5,5,5,0,0,0,0,,,,,,,,,,,,,,,,,,,,,,,,,,,,,,,,,,,,,,,,,,,,,,,,,,,,,,,,,,,,,,,,,,,,,,,,,,,,,,,,,,,,,,,,,,,,,,,,,,,,,,,,,,,,,,,,,,,,,,,,,,,,,,,,,,,,,,,,,,,,,,,,,,,,,,,,,,,,,,,,,,,,,,,,,,,,,,,,,,NENA_027,001,2021_Jan_25_1035,test7,3.2.4,99.96925109246924,
199,6,De gröna idéerna missade bussen i morse.,99,99,99,99,cor,1,no,,,0,5,5,5,,,,,,,,,,,,,,,,,,,,,,,,,,,,,,,,,,,,,,,,,,,,,,,,,,,,,,,,,,,,,,,,,,,,,,,,,,,,,,,,,,,,,,,,,,,,,,,,,,,,,,,,,,,,,,,,,,,,,,,,,,,,,,,,229.63375831622488,None,,,,,,,,,,,,,,,,,,,,,,,,,,,,,,,,,,,,,,,,,,,,,,,,,,,,,NENA_027,001,2021_Jan_25_1035,test7,3.2.4,99.96925109246924,
199,7,Det bruna bordet är mer än hundra år gamla.,99,99,99,99,inc,1,no,,,0,6,6,6,0,0,0,0,0,0,0,0,,,,,,,,,,,,,,,,,,,,,,,,,,,,,,,,,,,,,,,,,,,,,,,,,,,,,,,,,,,,,,,,,,,,,,,,,,,,,,,,,,,,,231.13436113528223,None,231.13436113528223,None,231.6344257631299,None,236.63537000324868,236.63537000324868,0.009935561384736502,None,236.63537000324868,236.63537000324868,237.12474457567077,None,237.62508984553733,None,237.62508984553733,None,right,1,0.3428617980780473,237.62508984553733,None,237.9858719996564,None,238.28537861494988,None,238.28537861494988,None,238.28537861494988,None,space,1.9866138567876988,238.28537861494988,None,,,,,,,,,,,,,,,,,,,,,,,,,,,,,,,,,,,,,,,,,,,,,,,,,,,,,,,NENA_027,001,2021_Jan_25_1035,test7,3.2.4,99.96925109246924,
199,7,Det bruna bordet är mer än hundra år gamla.,99,99,99,99,inc,1,no,,,0,6,6,6,0,0,0,0,,,,,,,,,,,,,,,,,,,,,,,,,,,,,,,,,,,,,,,,,,,,,,,,,,,,,,,,,,,,,,,,,,,,,,,,,,,,,,,,,,,,,,,,,,,,,,,,,,,,,,,,,,,,,,,,,,,,,,,,,,,,,,,,,,,,,,,,,,,,,,,,,,,,,,,,,,,,,,,,,,,,,,,,,,,,,,,,,,NENA_027,001,2021_Jan_25_1035,test7,3.2.4,99.96925109246924,
199,7,Det bruna bordet är mer än hundra år gamla.,99,99,99,99,inc,1,no,,,0,6,6,6,,,,,,,,,,,,,,,,,,,,,,,,,,,,,,,,,,,,,,,,,,,,,,,,,,,,,,,,,,,,,,,,,,,,,,,,,,,,,,,,,,,,,,,,,,,,,,,,,,,,,,,,,,,,,,,,,,,,,,,,,,,,,,,,240.29599907115517,None,,,,,,,,,,,,,,,,,,,,,,,,,,,,,,,,,,,,,,,,,,,,,,,,,,,,,NENA_027,001,2021_Jan_25_1035,test7,3.2.4,99.96925109246924,
199,8,På våren gilla alla att tillbringa tid i solen.,99,99,99,99,inc,1,no,,,0,7,7,7,0,0,0,0,0,0,0,0,,,,,,,,,,,,,,,,,,,,,,,,,,,,,,,,,,,,,,,,,,,,,,,,,,,,,,,,,,,,,,,,,,,,,,,,,,,,,,,,,,,,,241.7962628746527,None,241.7962628746527,None,242.2963303891047,None,247.2972316509031,247.2972316509031,0.009935561385645997,None,247.2972316509031,247.2972316509031,247.78663124055583,None,248.2874114253691,None,248.2874114253691,None,right,1,0.9363276179647073,248.2874114253691,None,249.247568918463,None,249.5473019717747,None,249.5473019717747,None,249.5473019717747,None,space,2.204287183704764,249.5473019717747,None,,,,,,,,,,,,,,,,,,,,,,,,,,,,,,,,,,,,,,,,,,,,,,,,,,,,,,,NENA_027,001,2021_Jan_25_1035,test7,3.2.4,99.96925109246924,
199,8,På våren gilla alla att tillbringa tid i solen.,99,99,99,99,inc,1,no,,,0,7,7,7,0,0,0,0,,,,,,,,,,,,,,,,,,,,,,,,,,,,,,,,,,,,,,,,,,,,,,,,,,,,,,,,,,,,,,,,,,,,,,,,,,,,,,,,,,,,,,,,,,,,,,,,,,,,,,,,,,,,,,,,,,,,,,,,,,,,,,,,,,,,,,,,,,,,,,,,,,,,,,,,,,,,,,,,,,,,,,,,,,,,,,,,,,NENA_027,001,2021_Jan_25_1035,test7,3.2.4,99.96925109246924,
199,8,På våren gilla alla att tillbringa tid i solen.,99,99,99,99,inc,1,no,,,0,7,7,7,,,,,,,,,,,,,,,,,,,,,,,,,,,,,,,,,,,,,,,,,,,,,,,,,,,,,,,,,,,,,,,,,,,,,,,,,,,,,,,,,,,,,,,,,,,,,,,,,,,,,,,,,,,,,,,,,,,,,,,,,,,,,,,,251.7681537700164,None,,,,,,,,,,,,,,,,,,,,,,,,,,,,,,,,,,,,,,,,,,,,,,,,,,,,,NENA_027,001,2021_Jan_25_1035,test7,3.2.4,99.96925109246924,
199,9,Tidningen avskedade dem journalist som publicerade falska fakta.,99,99,99,99,inc,1,no,,,0,8,8,8,0,0,0,0,0,0,0,0,,,,,,,,,,,,,,,,,,,,,,,,,,,,,,,,,,,,,,,,,,,,,,,,,,,,,,,,,,,,,,,,,,,,,,,,,,,,,,,,,,,,,253.2682947324938,None,253.2682947324938,None,253.76838405683884,None,258.26912190479925,258.26912190479925,0.009933636983078031,None,258.26912190479925,258.26912190479925,258.75858339606293,None,259.2593517137284,None,259.2593517137284,None,right,1,0.932104837595034,259.2593517137284,None,260.2096540213115,None,260.510065105741,None,260.510065105741,None,260.510065105741,None,space,2.2813595005018215,260.510065105741,None,,,,,,,,,,,,,,,,,,,,,,,,,,,,,,,,,,,,,,,,,,,,,,,,,,,,,,,NENA_027,001,2021_Jan_25_1035,test7,3.2.4,99.96925109246924,
199,9,Tidningen avskedade dem journalist som publicerade falska fakta.,99,99,99,99,inc,1,no,,,0,8,8,8,0,0,0,0,,,,,,,,,,,,,,,,,,,,,,,,,,,,,,,,,,,,,,,,,,,,,,,,,,,,,,,,,,,,,,,,,,,,,,,,,,,,,,,,,,,,,,,,,,,,,,,,,,,,,,,,,,,,,,,,,,,,,,,,,,,,,,,,,,,,,,,,,,,,,,,,,,,,,,,,,,,,,,,,,,,,,,,,,,,,,,,,,,NENA_027,001,2021_Jan_25_1035,test7,3.2.4,99.96925109246924,
199,9,Tidningen avskedade dem journalist som publicerade falska fakta.,99,99,99,99,inc,1,no,,,0,8,8,8,,,,,,,,,,,,,,,,,,,,,,,,,,,,,,,,,,,,,,,,,,,,,,,,,,,,,,,,,,,,,,,,,,,,,,,,,,,,,,,,,,,,,,,,,,,,,,,,,,,,,,,,,,,,,,,,,,,,,,,,,,,,,,,,262.8105069806097,None,,,,,,,,,,,,,,,,,,,,,,,,,,,,,,,,,,,,,,,,,,,,,,,,,,,,,NENA_027,001,2021_Jan_25_1035,test7,3.2.4,99.96925109246924,
199,10,Bra jobbat!,99,99,99,99,cor,1,no,,,0,9,9,9,0,0,0,0,0,0,0,0,,,,,,,,,,,,,,,,,,,,,,,,,,,,,,,,,,,,,,,,,,,,,,,,,,,,,,,,,,,,,,,,,,,,,,,,,,,,,,,,,,,,,264.31025119545484,None,264.31025119545484,None,264.81034533080583,None,266.3105866829428,266.3105866829428,0.009935882118952577,None,266.3105866829428,266.3105866829428,266.8000074410229,None,267.3007619671371,None,267.3007619671371,None,left,1,0.9865788968108973,267.3007619671371,None,268.3109253777684,None,268.6109579963886,None,268.6109579963886,None,268.6109579963886,None,space,3.7722655765146555,268.6109579963886,None,,,,,,,,,,,,,,,,,,,,,,,,,,,,,,,,,,,,,,,,,,,,,,,,,,,,,,,NENA_027,001,2021_Jan_25_1035,test7,3.2.4,99.96925109246924,
199,10,Bra jobbat!,99,99,99,99,cor,1,no,,,0,9,9,9,0,0,0,0,,,,,,,,,,,,,,,,,,,,,,,,,,,,,,,,,,,,,,,,,,,,,,,,,,,,,,,,,,,,,,,,,,,,,,,,,,,,,,,,,,,,,,,,,,,,,,,,,,,,,,,,,,,,,,,,,,,,,,,,,,,,,,,,,,,,,,,,,,,,,,,,,,,,,,,,,,,,,,,,,,,,,,,,,,,,,,,,,,NENA_027,001,2021_Jan_25_1035,test7,3.2.4,99.96925109246924,
199,10,Bra jobbat!,99,99,99,99,cor,1,no,,,0,9,9,9,,,,,,,,,,,,,,,,,,,,,,,,,,,,,,,,,,,,,,,,,,,,,,,,,,,,,,,,,,,,,,,,,,,,,,,,,,,,,,,,,,,,,,,,,,,,,,,,,,,,,,,,,,,,,,,,,,,,,,,,,,,,,,,,272.401842487021,None,,,,,,,,,,,,,,,,,,,,,,,,,,,,,,,,,,,,,,,,,,,,,,,,,,,,,NENA_027,001,2021_Jan_25_1035,test7,3.2.4,99.96925109246924,
,,,,,,,,,,,,,,,,,,,,,,,,,,,,,,,,,,,,,,,,,,,,,,,,,,,,,,,,,,,,,,,,,,,,,,,,,,,,,,,,,,,,,,,,,,,,,,,,,,,,,,,,,,,,,,,,,,,,,,,,,,,,,,,,,,,,,,,,,,,,,,,,,273.90191834054895,None,273.90191834054895,None,space,115.06282981451022,273.90191834054895,None,,,,,,,,,,,,,,,,,,,,,,,,,,,,,,,,,,,,,,,,,,,,,NENA_027,001,2021_Jan_25_1035,test7,3.2.4,99.96925109246924,
,,,,,,,,,,,,,,,,,,,,,,,,,,,,,,,,,,,,,,,,,,,,,,,,,,,,,,,,,,,,,,,,,,,,,,,,,,,,,,,,,,,,,,,,,,,,,,,,,,,,,,,,,,,,,,,,,,,,,,,,,,,,,,,,,,,,,,,,,,,,,,,,,,,,,,,,,388.98224385963294,None,388.98224385963294,None,space,6.830225049240653,388.98224385963294,None,,,,,,,,,,,,,,,,,,,,,,,,,,,,,,,,,,,,,NENA_027,001,2021_Jan_25_1035,test7,3.2.4,99.96925109246924,
,,,,,,,,,,,,,,,,,,,,,,,,,,,,,,,,,,,,,,,,,,,,,,,,,,,,,,,,,,,,,,,,,,,,,,,,,,,,,,,,,,,,,,,,,,,,,,,,,,,,,,,,,,,,,,,,,,,,,,,,,,,,,,,,,,,,,,,,,,,,,,,,,,,,,,,,,,,,,,,,,395.8234238903651,None,395.8234238903651,None,space,5.277029915797357,395.8234238903651,None,,,,,,,,,,,,,,,,,,,,,,,,,,,,,NENA_027,001,2021_Jan_25_1035,test7,3.2.4,99.96925109246924,
,,,,,,,,,,,,,,,,,,,,,,,,,,,,,,,,,,,,,,,,,,,,,,,,,,,,,,,,,,,,,,,,,,,,,,,,,,,,,,,,,,,,,,,,,,,,,,,,,,,,,,,,,,,,,,,,,,,,,,,,,,,,,,,,,,,,,,,,,,,,,,,,,,,,,,,,,,,,,,,,,,,,,,,,,401.11437461251353,None,401.11437461251353,None,space,2.4019646865745017,401.11437461251353,None,,,,,,,,,,,,,,,,,,,,,NENA_027,001,2021_Jan_25_1035,test7,3.2.4,99.96925109246924,
180,28,Berget som de underbetalda gruvarbetarna hade fått i uppgift att spränga var fullkomligt ogenomtränglig och de gav därför upp.,14,,0,,inc,1,no,182,199,,,,,,,,,,,,,0,0,0,0,,,,,,,,,,,,,,,,,,,,,,,,,,,,,,,,,,,,,,,,,,,,,,,,,,,,,,,,,,,,,,,,,,,,,,,,,,,,,,,,,,,,,,,,,,,,,414.52603924947016,None,415.02683803683976,None,415.02683803683976,None,left,0,0.9054569958607317,415.02683803683976,None,,,,,,,,,,,,,415.95699986946147,None,,,,,,,,,,,,,,,,,,,,,,,,,,,,,,,,,403.62413630413994,None,403.62413630413994,None,404.044911703606,None,414.03665280990026,414.03665280990026,0.009900922142151103,None,414.03665280990026,414.03665280990026,417.45728792042956,None,417.45728792042956,None,None,0.008128226781991543,None,,NENA_027,001,2021_Jan_25_1035,test7,3.2.4,99.96925109246924,
170,110,Vattnet var mycket kall mot den varma huden. ,4,,0,,inc,1,no,174,199,,,,,,,,,,,,,0,1,1,1,,,,,,,,,,,,,,,,,,,,,,,,,,,,,,,,,,,,,,,,,,,,,,,,,,,,,,,,,,,,,,,,,,,,,,,,,,,,,,,,,,,,,,,,,,,,,422.957545116813,None,423.45833139556726,None,423.45833139556726,None,right,1,0.6735424495909683,423.45833139556726,None,,,,,,,,,,,,,424.14827199888623,None,,,,,,,,,,,,,,,,,,,,,,,,,,,,,,,,,417.46687349716194,None,417.46687349716194,None,417.96732685429834,None,422.4681484137627,422.4681484137627,0.0099095819532522,None,422.4681484137627,422.4681484137627,425.64872554846244,None,425.64872554846244,None,None,0.008033931063437194,None,,NENA_027,001,2021_Jan_25_1035,test7,3.2.4,99.96925109246924,
130,68,Kockar skär ofta grönsaker med vass kniv.,3,,4,,cor,1,no,137,138,,,,,,,,,,,,,0,2,2,2,,,,,,,,,,,,,,,,,,,,,,,,,,,,,,,,,,,,,,,,,,,,,,,,,,,,,,,,,,,,,,,,,,,,,,,,,,,,,,,,,,,,,,,,,,,,,430.6488690447359,None,431.1496848309944,None,431.1496848309944,None,left,1,0.7260173754293646,431.1496848309944,None,,,,,,,,,,,,,431.8895287170553,None,,,,,,,,,,,,,,,,,,,,,,,,,,,,,,,,,425.6586969678792,None,425.6586969678792,None,426.1587494078449,None,430.1595028113916,430.1595028113916,0.009905733147206774,None,430.1595028113916,430.1595028113916,433.3900470548468,None,433.3900470548468,None,None,0.008085889929134282,None,,NENA_027,001,2021_Jan_25_1035,test7,3.2.4,99.96925109246924,
160,23,Mannen med den vita bilen upptäckte en allvarlig balkongbrand som de nya hyresgästerna i lägenheten bredvid inte hade brytt sig om.,17,,18,,cor,1,no,161,162,,,,,,,,,,,,,0,3,3,3,,,,,,,,,,,,,,,,,,,,,,,,,,,,,,,,,,,,,,,,,,,,,,,,,,,,,,,,,,,,,,,,,,,,,,,,,,,,,,,,,,,,,,,,,,,,,445.39146963725943,None,445.8922151828292,None,445.8922151828292,None,left,1,0.8631262366288865,445.8922151828292,None,,,,,,,,,,,,,446.77239675661167,None,,,,,,,,,,,,,,,,,,,,,,,,,,,,,,,,,433.3999588177885,None,433.3999588177885,None,433.9000391615891,None,444.90211238445954,444.90211238445954,0.009904770945468044,None,444.90211238445954,444.90211238445954,448.2727050138063,None,448.2727050138063,None,None,0.008227012773204478,None,,NENA_027,001,2021_Jan_25_1035,test7,3.2.4,99.96925109246924,
150,12,Turisterna hade skidor som instruktörerna inte ville godkänna.  ,6,,7,,cor,1,no,151,152,,,,,,,,,,,,,0,4,4,4,,,,,,,,,,,,,,,,,,,,,,,,,,,,,,,,,,,,,,,,,,,,,,,,,,,,,,,,,,,,,,,,,,,,,,,,,,,,,,,,,,,,,,,,,,,,,453.7730029433733,None,454.2737648463635,None,454.2737648463635,None,left,1,1.2333709981658103,454.2737648463635,None,,,,,,,,,,,,,455.52389738958027,None,,,,,,,,,,,,,,,,,,,,,,,,,,,,,,,,,448.2826870174358,None,448.2826870174358,None,448.7828064907526,None,453.28359501464274,453.28359501464274,0.00990701608316158,None,453.28359501464274,453.28359501464274,457.0242476628935,None,457.0242476628935,None,None,0.008537162296306633,None,,NENA_027,001,2021_Jan_25_1035,test7,3.2.4,99.96925109246924,
180,44,Bröllopet som för att vara en vuxenfest avslutades alldeles för tidigt var ändå jättelyckad enligt de flesta gästerna. ,14,,0,,inc,1,no,182,199,,,,,,,,,,,,,0,5,5,5,,,,,,,,,,,,,,,,,,,,,,,,,,,,,,,,,,,,,,,,,,,,,,,,,,,,,,,,,,,,,,,,,,,,,,,,,,,,,,,,,,,,,,,,,,,,,467.52541061134707,None,468.02616193012454,None,468.02616193012454,None,right,1,2.776771244039992,468.02616193012454,None,,,,,,,,,,,,,470.81665288046133,None,,,,,,,,,,,,,,,,,,,,,,,,,,,,,,,,,457.03423511899655,None,457.03423511899655,None,457.5343279714134,None,467.03600941802506,467.03600941802506,0.009904770946377539,None,467.03600941802506,467.03600941802506,472.3169685145311,None,472.3169685145311,None,None,0.007632051691871311,None,,NENA_027,001,2021_Jan_25_1035,test7,3.2.4,99.96925109246924,
180,42,Vasen som hade prytt det lilla vardagsrummet sedan många år tillbaka var nu sprucken men fortfarande mycket omtyckt. ,14,,0,,cor,1,no,181,199,,,,,,,,,,,,,0,6,6,6,,,,,,,,,,,,,,,,,,,,,,,,,,,,,,,,,,,,,,,,,,,,,,,,,,,,,,,,,,,,,,,,,,,,,,,,,,,,,,,,,,,,,,,,,,,,,482.8181135018958,None,483.3188914415732,None,483.3188914415732,None,left,1,1.8196209504558283,483.3188914415732,None,,,,,,,,,,,,,485.14915946913425,None,,,,,,,,,,,,,,,,,,,,,,,,,,,,,,,,,472.32695083889485,None,472.32695083889485,None,472.8270411254416,None,482.32865553870306,482.32865553870306,0.009903488011332229,None,482.32865553870306,482.32865553870306,486.6495135912526,None,486.6495135912526,None,None,0.007695556972066697,None,,NENA_027,001,2021_Jan_25_1035,test7,3.2.4,99.96925109246924,
140,40,Apotekare säljer ofta medicin som är onödigt.,3,,4,,inc,1,no,133,134,,,,,,,,,,,,,0,7,7,7,,,,,,,,,,,,,,,,,,,,,,,,,,,,,,,,,,,,,,,,,,,,,,,,,,,,,,,,,,,,,,,,,,,,,,,,,,,,,,,,,,,,,,,,,,,,,491.649666709538,None,492.1504446492154,None,492.1504446492154,None,right,1,5.979864336044557,492.1504446492154,None,,,,,,,,,,,,,498.14146602900473,None,,,,,,,,,,,,,,,,,,,,,,,,,,,,,,,,,486.6594734642549,None,486.6594734642549,None,487.1595618263991,None,491.16025621493736,491.16025621493736,0.009903808745548304,None,491.16025621493736,491.16025621493736,499.6418044351702,None,499.6418044351702,None,None,0.008690473022397782,None,,NENA_027,001,2021_Jan_25_1035,test7,3.2.4,99.96925109246924,
170,120,Filten är väldigt tjock och skyddar bra mot kylan. ,4,,0,,cor,1,no,171,199,,,,,,,,,,,,,0,8,8,8,,,,,,,,,,,,,,,,,,,,,,,,,,,,,,,,,,,,,,,,,,,,,,,,,,,,,,,,,,,,,,,,,,,,,,,,,,,,,,,,,,,,,,,,,,,,,505.64212273132944,None,506.14290933081793,None,506.14290933081793,None,left,1,1.4031414586515893,506.14290933081793,None,,,,,,,,,,,,,507.56284087982385,None,,,,,,,,,,,,,,,,,,,,,,,,,,,,,,,,,499.651758855699,None,499.651758855699,None,500.1518507459141,None,505.152689464634,505.152689464634,0.00990701608316158,None,505.152689464634,505.152689464634,509.0634198362912,None,509.0634198362912,None,None,0.0078251334007291,None,,NENA_027,001,2021_Jan_25_1035,test7,3.2.4,99.96925109246924,
130,31,Arbetsgivare sänker ibland lönen utan att informera facket.,3,,4,,cor,1,no,133,134,,,,,,,,,,,,,0,9,9,9,,,,,,,,,,,,,,,,,,,,,,,,,,,,,,,,,,,,,,,,,,,,,,,,,,,,,,,,,,,,,,,,,,,,,,,,,,,,,,,,,,,,,,,,,,,,,514.5637148792548,None,515.0644915359971,None,515.0644915359971,None,left,1,1.2893836171133444,515.0644915359971,None,,,,,,,,,,,,,516.364945598747,None,,,,,,,,,,,,,,,,,,,,,,,,,,,,,,,,,509.073449629248,None,509.073449629248,None,509.5735245205751,None,514.0743101578619,514.0743101578619,0.00990637461472943,None,514.0743101578619,514.0743101578619,517.8649969482183,None,517.8649969482183,None,None,0.00809647414189385,None,,NENA_027,001,2021_Jan_25_1035,test7,3.2.4,99.96925109246924,
160,18,Den lättretade försäljaren hade en fruktansvärt dålig attityd som minst hälften av hans nuvarande kunder kunde inte stå ut med.,16,,17,,inc,1,no,163,164,,,,,,,,,,,,,0,10,10,10,,,,,,,,,,,,,,,,,,,,,,,,,,,,,,,,,,,,,,,,,,,,,,,,,,,,,,,,,,,,,,,,,,,,,,,,,,,,,,,,,,,,,,,,,,,,,529.3662869072314,None,529.867094354413,None,529.867094354413,None,left,0,3.53436164845607,529.867094354413,None,,,,,,,,,,,,,533.417672942036,None,,,,,,,,,,,,,,,,,,,,,,,,,,,,,,,,,517.8749953092693,None,517.8749953092693,None,518.3749072678584,None,528.8769177872837,528.8769177872837,0.009903167278935143,None,528.8769177872837,528.8769177872837,534.9180261019526,None,534.9180261019526,None,None,0.008685982748829701,None,,NENA_027,001,2021_Jan_25_1035,test7,3.2.4,99.96925109246924,
170,18,Kexet är för sött för morföräldrarna.  ,4,,0,,cor,1,no,173,199,,,,,,,,,,,,,0,11,11,11,,,,,,,,,,,,,,,,,,,,,,,,,,,,,,,,,,,,,,,,,,,,,,,,,,,,,,,,,,,,,,,,,,,,,,,,,,,,,,,,,,,,,,,,,,,,,539.41810336671,None,539.9188482708123,None,539.9188482708123,None,left,1,0.9306224062656838,539.9188482708123,None,,,,,,,,,,,,,540.8587543150716,None,,,,,,,,,,,,,,,,,,,,,,,,,,,,,,,,,534.9279808432157,None,534.9279808432157,None,535.42807786517,None,538.9287050599914,538.9287050599914,0.009905091680593614,None,538.9287050599914,538.9287050599914,542.3593291019995,None,542.3593291019995,None,None,0.007583620897094079,None,,NENA_027,001,2021_Jan_25_1035,test7,3.2.4,99.96925109246924,
160,58,Blommorna i trädgården utsöndrade ett illaluktande ämne som den mycket erfarna trädgårdsmästaren i byn ville inte komma nära.,15,,16,,inc,1,no,163,164,,,,,,,,,,,,,0,12,12,12,,,,,,,,,,,,,,,,,,,,,,,,,,,,,,,,,,,,,,,,,,,,,,,,,,,,,,,,,,,,,,,,,,,,,,,,,,,,,,,,,,,,,,,,,,,,,552.8604683161575,None,553.3612770462732,None,553.3612770462732,None,right,1,0.9358644784497301,553.3612770462732,None,,,,,,,,,,,,,554.3112486773744,None,,,,,,,,,,,,,,,,,,,,,,,,,,,,,,,,,542.3692998799488,None,542.3692998799488,None,542.8693876006264,None,552.371072575309,552.371072575309,0.009904450212161464,None,552.371072575309,552.371072575309,555.8117003025479,None,555.8117003025479,None,None,0.008646853232676222,None,,NENA_027,001,2021_Jan_25_1035,test7,3.2.4,99.96925109246924,
170,62,Vulkanutbrottet var helt oväntad och många hus förstördes. ,4,,0,,inc,1,no,174,199,,,,,,,,,,,,,0,13,13,13,,,,,,,,,,,,,,,,,,,,,,,,,,,,,,,,,,,,,,,,,,,,,,,,,,,,,,,,,,,,,,,,,,,,,,,,,,,,,,,,,,,,,,,,,,,,,561.3119449903152,None,561.812728382466,None,561.812728382466,None,right,1,1.9961181595917878,561.812728382466,None,,,,,,,,,,,,,563.8228209109411,None,,,,,,,,,,,,,,,,,,,,,,,,,,,,,,,,,555.8216675524263,None,555.8216675524263,None,556.3217632914466,None,560.8225752289,560.8225752289,0.009907016082252085,None,560.8225752289,560.8225752289,565.3233777367811,None,565.3233777367811,None,None,0.007848226230635191,None,,NENA_027,001,2021_Jan_25_1035,test7,3.2.4,99.96925109246924,
130,33,Kungar bär ofta krona under viktiga ceremonier.,3,,4,,cor,1,no,133,134,,,,,,,,,,,,,0,14,14,14,,,,,,,,,,,,,,,,,,,,,,,,,,,,,,,,,,,,,,,,,,,,,,,,,,,,,,,,,,,,,,,,,,,,,,,,,,,,,,,,,,,,,,,,,,,,,570.323552023493,None,570.8242407991911,None,570.8242407991911,None,right,0,4.360477457068555,570.8242407991911,None,,,,,,,,,,,,,575.1948325946296,None,,,,,,,,,,,,,,,,,,,,,,,,,,,,,,,,,565.3333449866586,None,565.3333449866586,None,565.8334416878806,None,569.8341424910941,569.8341424910941,0.009908940485729545,None,569.8341424910941,569.8341424910941,576.69537402525,None,576.69537402525,None,None,0.008478468022076413,None,,NENA_027,001,2021_Jan_25_1035,test7,3.2.4,99.96925109246924,
130,46,Idrottare lyfter ofta vikter för att stärka ryggen.,3,,4,,cor,1,no,135,136,,,,,,,,,,,,,0,15,15,15,,,,,,,,,,,,,,,,,,,,,,,,,,,,,,,,,,,,,,,,,,,,,,,,,,,,,,,,,,,,,,,,,,,,,,,,,,,,,,,,,,,,,,,,,,,,,582.1956334667693,None,582.6964098027775,None,582.6964098027775,None,left,1,1.5280063094733123,582.6964098027775,None,,,,,,,,,,,,,584.2366758385824,None,,,,,,,,,,,,,,,,,,,,,,,,,,,,,,,,,576.7053531422762,None,576.7053531422762,None,577.2054389385512,None,581.7062601772823,581.7062601772823,0.00990637461472943,None,581.7062601772823,581.7062601772823,585.7370052642025,None,585.7370052642025,None,None,0.007747515837763785,None,,NENA_027,001,2021_Jan_25_1035,test7,3.2.4,99.96925109246924,
150,2,Flickan plockade äpplet men pojken inte ville ha det.  ,6,,7,,inc,1,no,157,158,,,,,,,,,,,,,0,16,16,16,,,,,,,,,,,,,,,,,,,,,,,,,,,,,,,,,,,,,,,,,,,,,,,,,,,,,,,,,,,,,,,,,,,,,,,,,,,,,,,,,,,,,,,,,,,,,591.7373296543037,None,592.2381024622409,None,592.2381024622409,None,right,1,0.274084297164336,592.2381024622409,None,,,,,,,,,,,,,592.5280945112518,None,,,,,,,,,,,,,,,,,,,,,,,,,,,,,,,,,585.7469744384834,None,585.7469744384834,None,586.2470358589935,None,591.2479374415261,591.2479374415261,0.00990605388142285,None,591.2479374415261,591.2479374415261,594.0284640285888,None,594.0284640285888,None,None,0.007932899937259208,None,,NENA_027,001,2021_Jan_25_1035,test7,3.2.4,99.96925109246924,
180,59,Bankrånet som genomfördes under onsdagen på ett växlingskontor i centrala Norrköping var ganska välplanerat och rånarna lyckades fly. ,14,,0,,cor,1,no,181,199,,,,,,,,,,,,,0,17,17,17,,,,,,,,,,,,,,,,,,,,,,,,,,,,,,,,,,,,,,,,,,,,,,,,,,,,,,,,,,,,,,,,,,,,,,,,,,,,,,,,,,,,,,,,,,,,,604.529576621846,None,605.0303548822567,None,605.0303548822567,None,left,1,1.4895830493505855,605.0303548822567,None,,,,,,,,,,,,,606.530360815831,None,,,,,,,,,,,,,,,,,,,,,,,,,,,,,,,,,594.0384277503963,None,594.0384277503963,None,594.5385148296054,None,604.0401853712701,604.0401853712701,0.009899639207105793,None,604.0401853712701,604.0401853712701,608.0309060952557,None,608.0309060952557,None,None,0.00789986436120671,None,,NENA_027,001,2021_Jan_25_1035,test7,3.2.4,99.96925109246924,
180,27,Folket som såg den nya konservativa ministern på gatan den dagen blev glatt överraskat över färgvalet.  ,14,,0,,cor,1,no,181,199,,,,,,,,,,,,,0,18,18,18,,,,,,,,,,,,,,,,,,,,,,,,,,,,,,,,,,,,,,,,,,,,,,,,,,,,,,,,,,,,,,,,,,,,,,,,,,,,,,,,,,,,,,,,,,,,,617.5318653777877,None,618.0326394686599,None,618.0326394686599,None,right,0,0.4710006988789246,618.0326394686599,None,,,,,,,,,,,,,618.5223899410203,None,,,,,,,,,,,,,,,,,,,,,,,,,,,,,,,,,608.0409079843776,None,608.0409079843776,None,608.5409864037765,None,617.0424917675664,617.0424917675664,0.009906695348945505,None,617.0424917675664,617.0424917675664,620.0230247051575,None,620.0230247051575,None,None,0.007601261253512348,None,,NENA_027,001,2021_Jan_25_1035,test7,3.2.4,99.96925109246924,
180,51,Locket som den omtänksamma föräldern till den lilla pojken hade satt på matlådan var lite löst och maten föll ur. ,16,,0,,cor,1,no,181,199,,,,,,,,,,,,,0,19,19,19,,,,,,,,,,,,,,,,,,,,,,,,,,,,,,,,,,,,,,,,,,,,,,,,,,,,,,,,,,,,,,,,,,,,,,,,,,,,,,,,,,,,,,,,,,,,,631.5043448195565,None,632.0051102506177,None,632.0051102506177,None,left,1,12.818174441305928,632.0051102506177,None,,,,,,,,,,,,,644.8373835054981,None,,,,,,,,,,,,,,,,,,,,,,,,,,,,,,,,,620.033011519793,None,620.033011519793,None,620.5330963538663,None,631.01496126659,631.01496126659,0.009905412414809689,None,631.01496126659,631.01496126659,646.3376468599688,None,646.3376468599688,None,None,0.008308158407999144,None,,NENA_027,001,2021_Jan_25_1035,test7,3.2.4,99.96925109246924,
150,98,Arrangörerna genomförde tävlingen men idrottarna inte ville delta i den.  ,6,,7,,inc,1,no,157,158,,,,,,,,,,,,,0,20,20,20,,,,,,,,,,,,,,,,,,,,,,,,,,,,,,,,,,,,,,,,,,,,,,,,,,,,,,,,,,,,,,,,,,,,,,,,,,,,,,,,,,,,,,,,,,,,,652.8380987417295,None,653.3388737948026,None,653.3388737948026,None,right,1,0.5480473569778042,653.3388737948026,None,,,,,,,,,,,,,653.8986933628321,None,,,,,,,,,,,,,,,,,,,,,,,,,,,,,,,,,646.3476384856103,None,646.3476384856103,None,646.8477002268546,None,652.3487405267279,652.3487405267279,0.009906374615638924,None,652.3487405267279,652.3487405267279,655.3992761681045,None,655.3992761681045,None,None,0.0076320516936903005,None,,NENA_027,001,2021_Jan_25_1035,test7,3.2.4,99.96925109246924,
150,86,Sjön lagrar vatten men bönderna får inte använda det.  ,6,,7,,cor,1,no,155,156,,,,,,,,,,,,,0,21,21,21,,,,,,,,,,,,,,,,,,,,,,,,,,,,,,,,,,,,,,,,,,,,,,,,,,,,,,,,,,,,,,,,,,,,,,,,,,,,,,,,,,,,,,,,,,,,,661.3996233303005,None,661.9003929309001,None,661.9003929309001,None,right,0,6.978211915835345,661.9003929309001,None,,,,,,,,,,,,,668.8913966703349,None,,,,,,,,,,,,,,,,,,,,,,,,,,,,,,,,,655.4092517570598,None,655.4092517570598,None,655.9093519863518,None,660.910221495511,660.910221495511,0.009903808745548304,None,660.910221495511,660.910221495511,670.3919291204099,None,670.3919291204099,None,None,0.007741421895843814,None,,NENA_027,001,2021_Jan_25_1035,test7,3.2.4,99.96925109246924,
180,2,Explosionen som efter mörkrets inbrott hade skett i parkeringshuset framstod som oerhört kraftfull även i grannkommunen. ,13,,0,,cor,1,no,181,199,,,,,,,,,,,,,0,22,22,22,,,,,,,,,,,,,,,,,,,,,,,,,,,,,,,,,,,,,,,,,,,,,,,,,,,,,,,,,,,,,,,,,,,,,,,,,,,,,,,,,,,,,,,,,,,,,679.8828860006461,None,680.3835010075845,None,680.3835010075845,None,left,1,5.66276066431692,680.3835010075845,None,,,,,,,,,,,,,686.0644427844691,None,,,,,,,,,,,,,,,,,,,,,,,,,,,,,,,,,670.4019047093652,None,670.4019047093652,None,670.901984090965,None,679.393465242566,679.393465242566,0.009906374615638924,None,679.393465242566,679.393465242566,687.5649415575024,None,687.5649415575024,None,None,0.0081907698604482,None,,NENA_027,001,2021_Jan_25_1035,test7,3.2.4,99.96925109246924,
160,31,Bondsonen i granngården sätter en ny sorts potatis som de något äldre bönderna i samhället inte vill använda.,16,,17,,cor,1,no,161,162,,,,,,,,,,,,,0,23,23,23,,,,,,,,,,,,,,,,,,,,,,,,,,,,,,,,,,,,,,,,,,,,,,,,,,,,,,,,,,,,,,,,,,,,,,,,,,,,,,,,,,,,,,,,,,,,,698.0660929595415,None,698.5668760309582,None,698.5668760309582,None,left,1,6.246905641097328,698.5668760309582,None,,,,,,,,,,,,,704.8277056857432,None,,,,,,,,,,,,,,,,,,,,,,,,,,,,,,,,,687.5749181086585,None,687.5749181086585,None,688.0749724730267,None,697.5766904832844,697.5766904832844,0.009907978283990815,None,697.5766904832844,697.5766904832844,706.328256096908,None,706.328256096908,None,None,0.007852716503293777,None,,NENA_027,001,2021_Jan_25_1035,test7,3.2.4,99.96925109246924,
130,44,Piloter flyger ofta flygplan i dåligt väder.,3,,4,,cor,1,no,135,136,,,,,,,,,,,,,0,24,24,24,,,,,,,,,,,,,,,,,,,,,,,,,,,,,,,,,,,,,,,,,,,,,,,,,,,,,,,,,,,,,,,,,,,,,,,,,,,,,,,,,,,,,,,,,,,,,711.3284332702233,None,711.8292035122913,None,711.8292035122913,None,left,1,1.584360189117433,711.8292035122913,None,,,,,,,,,,,,,713.4297684526937,None,,,,,,,,,,,,,,,,,,,,,,,,,,,,,,,,,706.3382464396145,None,706.3382464396145,None,706.8383213309426,None,710.839026945162,710.839026945162,0.00990733681646816,None,710.839026945162,710.839026945162,714.9297672018317,None,714.9297672018317,None,None,0.008069853241067904,None,,NENA_027,001,2021_Jan_25_1035,test7,3.2.4,99.96925109246924,
140,77,Förlag får ofta manuskript av okända författarna.,3,,4,,inc,1,no,137,138,,,,,,,,,,,,,0,25,25,25,,,,,,,,,,,,,,,,,,,,,,,,,,,,,,,,,,,,,,,,,,,,,,,,,,,,,,,,,,,,,,,,,,,,,,,,,,,,,,,,,,,,,,,,,,,,,719.9299183957155,None,720.430645338728,None,720.430645338728,None,right,1,0.3348232484486289,720.430645338728,None,,,,,,,,,,,,,720.7804567954017,None,,,,,,,,,,,,,,,,,,,,,,,,,,,,,,,,,714.9397030198043,None,714.9397030198043,None,715.4398536042936,None,719.4405495965011,719.4405495965011,0.009907016082252085,None,719.4405495965011,719.4405495965011,722.2810668630407,None,722.2810668630407,None,None,0.008108662023914803,None,,NENA_027,001,2021_Jan_25_1035,test7,3.2.4,99.96925109246924,
170,90,Solsystemet är väldigt liten jämfört med hela universum. ,4,,0,,cor,1,no,173,199,,,,,,,,,,,,,0,26,26,26,,,,,,,,,,,,,,,,,,,,,,,,,,,,,,,,,,,,,,,,,,,,,,,,,,,,,,,,,,,,,,,,,,,,,,,,,,,,,,,,,,,,,,,,,,,,,727.771363993982,None,728.2721143505578,None,728.2721143505578,None,right,0,2.181143358036934,728.2721143505578,None,,,,,,,,,,,,,730.4721861307671,None,,,,,,,,,,,,,,,,,,,,,,,,,,,,,,,,,722.2910594508849,None,722.2910594508849,None,722.7911766790648,None,727.2819156528003,727.2819156528003,0.009899959940412373,None,727.2819156528003,727.2819156528003,731.9727936325369,None,731.9727936325369,None,None,0.008646853232676222,None,,NENA_027,001,2021_Jan_25_1035,test7,3.2.4,99.96925109246924,
140,58,Keramiker formar gärna krukor och färgrik vaser.,3,,4,,inc,1,no,135,136,,,,,,,,,,,,,0,27,27,27,,,,,,,,,,,,,,,,,,,,,,,,,,,,,,,,,,,,,,,,,,,,,,,,,,,,,,,,,,,,,,,,,,,,,,,,,,,,,,,,,,,,,,,,,,,,,736.972934242207,None,737.4736894097887,None,737.4736894097887,None,left,0,5.5632350615851465,737.4736894097887,None,,,,,,,,,,,,,743.0544198552143,None,,,,,,,,,,,,,,,,,,,,,,,,,,,,,,,,,731.9827637690187,None,731.9827637690187,None,732.4828319249382,None,736.4835660844601,736.4835660844601,0.009906695349855,None,736.4835660844601,736.4835660844601,744.554966417574,None,744.554966417574,None,None,0.008237917719270627,None,,NENA_027,001,2021_Jan_25_1035,test7,3.2.4,99.96925109246924,
170,85,Mönstret var mycket smakfullt i sammanhanget.  ,4,,0,,cor,1,no,173,199,,,,,,,,,,,,,0,28,28,28,,,,,,,,,,,,,,,,,,,,,,,,,,,,,,,,,,,,,,,,,,,,,,,,,,,,,,,,,,,,,,,,,,,,,,,,,,,,,,,,,,,,,,,,,,,,,749.0550905094569,None,749.5558944285658,None,749.5558944285658,None,left,1,5.632821132247955,749.5558944285658,None,,,,,,,,,,,,,755.2068107167406,None,,,,,,,,,,,,,,,,,,,,,,,,,,,,,,,,,744.5649285357122,None,744.5649285357122,None,745.0650403114196,None,748.5656918820041,748.5656918820041,0.009901884343889833,None,748.5656918820041,748.5656918820041,756.7071321240171,None,756.7071321240171,None,None,0.008003140624168736,None,,NENA_027,001,2021_Jan_25_1035,test7,3.2.4,99.96925109246924,
130,25,Korrekturläsare letar ofta fel i tidigare publicerade artiklar.,3,,4,,cor,1,no,133,134,,,,,,,,,,,,,0,29,29,29,,,,,,,,,,,,,,,,,,,,,,,,,,,,,,,,,,,,,,,,,,,,,,,,,,,,,,,,,,,,,,,,,,,,,,,,,,,,,,,,,,,,,,,,,,,,,762.2073796983886,None,762.7081874663027,None,762.7081874663027,None,left,1,3.3442172188470067,762.7081874663027,None,,,,,,,,,,,,,766.0685484970254,None,,,,,,,,,,,,,,,,,,,,,,,,,,,,,,,,,756.7171224667245,None,756.7171224667245,None,757.2171973580516,None,761.7180189175169,761.7180189175169,0.00990765754977474,None,761.7180189175169,761.7180189175169,767.569065872615,None,767.569065872615,None,None,0.008688869353136397,None,,NENA_027,001,2021_Jan_25_1035,test7,3.2.4,99.96925109246924,
170,76,Gitarren är redan stämt och mikrofonerna är på plats. ,4,,0,,inc,1,no,172,199,,,,,,,,,,,,,0,30,30,30,,,,,,,,,,,,,,,,,,,,,,,,,,,,,,,,,,,,,,,,,,,,,,,,,,,,,,,,,,,,,,,,,,,,,,,,,,,,,,,,,,,,,,,,,,,,,773.5694024505983,None,774.0701066215161,None,774.0701066215161,None,right,1,0.6781934094988173,774.0701066215161,None,,,,,,,,,,,,,774.7600039257804,None,,,,,,,,,,,,,,,,,,,,,,,,,,,,,,,,,767.5790379334994,None,767.5790379334994,None,768.0791256541761,None,773.0800099170874,773.0800099170874,0.00990701608316158,None,773.0800099170874,773.0800099170874,776.2605976359998,None,776.2605976359998,None,None,0.007772853802634927,None,,NENA_027,001,2021_Jan_25_1035,test7,3.2.4,99.96925109246924,
140,16,Pirater hittar ibland skatter nedgrävda i market.,3,,4,,inc,1,no,131,132,,,,,,,,,,,,,0,31,31,31,,,,,,,,,,,,,,,,,,,,,,,,,,,,,,,,,,,,,,,,,,,,,,,,,,,,,,,,,,,,,,,,,,,,,,,,,,,,,,,,,,,,,,,,,,,,,781.2507550873979,None,781.7515439320223,None,781.7515439320223,None,right,1,0.6845734449789234,781.7515439320223,None,,,,,,,,,,,,,782.4513592856101,None,,,,,,,,,,,,,,,,,,,,,,,,,,,,,,,,,776.270580281097,None,776.270580281097,None,776.770666077372,None,780.7613587050819,780.7613587050819,0.009906695348945505,None,780.7613587050819,780.7613587050819,783.951946260421,None,783.951946260421,None,None,0.00786297998183727,None,,NENA_027,001,2021_Jan_25_1035,test7,3.2.4,99.96925109246924,
160,35,De lediga stadsborna utnyttjar alla de svårfunna badplatser som de badsugna turisterna från södra Europa kan inte hitta.,16,,17,,inc,1,no,163,164,,,,,,,,,,,,,0,32,32,32,,,,,,,,,,,,,,,,,,,,,,,,,,,,,,,,,,,,,,,,,,,,,,,,,,,,,,,,,,,,,,,,,,,,,,,,,,,,,,,,,,,,,,,,,,,,,794.4530761733004,None,794.9538704703973,None,794.9538704703973,None,right,1,2.2179097076796097,794.9538704703973,None,,,,,,,,,,,,,797.1842188738328,None,,,,,,,,,,,,,,,,,,,,,,,,,,,,,,,,,783.9619436592702,None,783.9619436592702,None,784.461995137035,None,793.9636326431246,793.9636326431246,0.009905412413900194,None,793.9636326431246,793.9636326431246,798.684580052093,None,798.684580052093,None,None,0.007965935511492717,None,,NENA_027,001,2021_Jan_25_1035,test7,3.2.4,99.96925109246924,
170,16,Båten är kraftigt skadad och måste bogseras.  ,4,,0,,cor,1,no,171,199,,,,,,,,,,,,,0,33,33,33,,,,,,,,,,,,,,,,,,,,,,,,,,,,,,,,,,,,,,,,,,,,,,,,,,,,,,,,,,,,,,,,,,,,,,,,,,,,,,,,,,,,,,,,,,,,,803.6847492070656,None,804.1855130344584,None,804.1855130344584,None,left,1,3.386077140953603,804.1855130344584,None,,,,,,,,,,,,,807.5860193447343,None,,,,,,,,,,,,,,,,,,,,,,,,,,,,,,,,,798.6945142663972,None,798.6945142663972,None,799.1946090432157,None,803.1953409576017,803.1953409576017,0.009907978283990815,None,803.1953409576017,803.1953409576017,809.0863792400594,None,809.0863792400594,None,None,0.008402133392337419,None,,NENA_027,001,2021_Jan_25_1035,test7,3.2.4,99.96925109246924,
170,53,Programmet är vanligtvis tråkigt på lördagskvällen.  ,4,,0,,cor,1,no,173,199,,,,,,,,,,,,,0,34,34,34,,,,,,,,,,,,,,,,,,,,,,,,,,,,,,,,,,,,,,,,,,,,,,,,,,,,,,,,,,,,,,,,,,,,,,,,,,,,,,,,,,,,,,,,,,,,,813.58647735251,None,814.0872325200917,None,814.0872325200917,None,right,0,15.851767772097446,814.0872325200917,None,,,,,,,,,,,,,829.9500162130898,None,,,,,,,,,,,,,,,,,,,,,,,,,,,,,,,,,809.0963570741515,None,809.0963570741515,None,809.59645185097,None,813.0970591603,813.0970591603,0.009907657550684235,None,813.0970591603,813.0970591603,831.4502882273716,None,831.4502882273716,None,None,0.008710037778655533,None,,NENA_027,001,2021_Jan_25_1035,test7,3.2.4,99.96925109246924,
180,26,Bänken som det äldre paret älskar att sitta på efter sina dagliga promenader är alldeles nymålad och kan inte användas. ,16,,0,,cor,1,no,181,199,,,,,,,,,,,,,0,35,35,35,,,,,,,,,,,,,,,,,,,,,,,,,,,,,,,,,,,,,,,,,,,,,,,,,,,,,,,,,,,,,,,,,,,,,,,,,,,,,,,,,,,,,,,,,,,,,842.9516426538667,None,843.4524144996021,None,843.4524144996021,None,left,1,7.718175435580633,843.4524144996021,None,,,,,,,,,,,,,851.1837554135845,None,,,,,,,,,,,,,,,,,,,,,,,,,,,,,,,,,831.4603228313345,None,831.4603228313345,None,831.9604111934786,None,842.4622388946746,842.4622388946746,0.00990765754977474,None,842.4622388946746,842.4622388946746,852.684093819749,None,852.684093819749,None,None,0.0076294858217806905,None,,NENA_027,001,2021_Jan_25_1035,test7,3.2.4,99.96925109246924,
160,11,Borgmästaren i byn sa väldigt många dumma saker som de flesta av invånarna i det lilla samhället ville inte höra.,18,,19,,inc,1,no,163,164,,,,,,,,,,,,,0,36,36,36,,,,,,,,,,,,,,,,,,,,,,,,,,,,,,,,,,,,,,,,,,,,,,,,,,,,,,,,,,,,,,,,,,,,,,,,,,,,,,,,,,,,,,,,,,,,,864.1853930800416,None,864.6861723026532,None,864.6861723026532,None,right,1,1.8920102339725418,864.6861723026532,None,,,,,,,,,,,,,866.5965012439656,None,,,,,,,,,,,,,,,,,,,,,,,,,,,,,,,,,852.6940848039239,None,852.6940848039239,None,853.1941532805768,None,863.6960124136785,863.6960124136785,0.009902205076286918,None,863.6960124136785,863.6960124136785,868.0967966718097,None,868.0967966718097,None,None,0.007797550299073919,None,,NENA_027,001,2021_Jan_25_1035,test7,3.2.4,99.96925109246924,
170,99,Fällan var redan färdig och spindeln väntade på bytet. ,4,,0,,cor,1,no,171,199,,,,,,,,,,,,,0,37,37,37,,,,,,,,,,,,,,,,,,,,,,,,,,,,,,,,,,,,,,,,,,,,,,,,,,,,,,,,,,,,,,,,,,,,,,,,,,,,,,,,,,,,,,,,,,,,,874.097151531616,None,874.5978447975867,None,874.5978447975867,None,left,1,3.2040601042190247,874.5978447975867,None,,,,,,,,,,,,,877.818424934354,None,,,,,,,,,,,,,,,,,,,,,,,,,,,,,,,,,868.1067911840555,None,868.1067911840555,None,868.6068971865552,None,873.6077548285657,873.6077548285657,0.00990829901820689,None,873.6077548285657,873.6077548285657,879.3187947724252,None,879.3187947724252,None,None,0.008427150624811475,None,,NENA_027,001,2021_Jan_25_1035,test7,3.2.4,99.96925109246924,
170,19,Väskan är för färgglad för äldres smak.  ,4,,0,,cor,1,no,171,199,,,,,,,,,,,,,0,38,38,38,,,,,,,,,,,,,,,,,,,,,,,,,,,,,,,,,,,,,,,,,,,,,,,,,,,,,,,,,,,,,,,,,,,,,,,,,,,,,,,,,,,,,,,,,,,,,884.3189581541901,None,884.819740263406,None,884.819740263406,None,left,1,5.246072695584189,884.819740263406,None,,,,,,,,,,,,,890.0808701249671,None,,,,,,,,,,,,,,,,,,,,,,,,,,,,,,,,,879.3287600979011,None,879.3287600979011,None,879.8288491015128,None,883.829570110951,883.829570110951,0.009904770946377539,None,883.829570110951,883.829570110951,891.5809724711023,None,891.5809724711023,None,None,0.00815580988273723,None,,NENA_027,001,2021_Jan_25_1035,test7,3.2.4,99.96925109246924,
180,34,Pannkakan som steks på den första smeten då stekpannan har extra mycket smör blir ofta ljus och får mer fett. ,16,,0,,cor,1,no,181,199,,,,,,,,,,,,,0,39,39,39,,,,,,,,,,,,,,,,,,,,,,,,,,,,,,,,,,,,,,,,,,,,,,,,,,,,,,,,,,,,,,,,,,,,,,,,,,,,,,,,,,,,,,,,,,,,,903.0822386958198,None,903.5830362002544,None,903.5830362002544,None,right,0,4.410461885446239,903.5830362002544,None,,,,,,,,,,,,,908.0037849788205,None,,,,,,,,,,,,,,,,,,,,,,,,,,,,,,,,,891.5909050817372,None,891.5909050817372,None,892.0910139708403,None,902.5928945931028,902.5928945931028,0.009904770947287034,None,902.5928945931028,902.5928945931028,909.5040925945466,None,909.5040925945466,None,None,0.007661879929401039,None,,NENA_027,001,2021_Jan_25_1035,test7,3.2.4,99.96925109246924,
150,1,Pojken älskade hunden men katten ville inte vara nära den. ,6,,7,,cor,1,no,155,156,,,,,,,,,,,,,0,40,40,40,,,,,,,,,,,,,,,,,,,,,,,,,,,,,,,,,,,,,,,,,,,,,,,,,,,,,,,,,,,,,,,,,,,,,,,,,,,,,,,,,,,,,,,,,,,,,916.0045540983192,None,916.5053259440556,None,916.5053259440556,None,left,1,2.1599399714741594,916.5053259440556,None,,,,,,,,,,,,,918.6758485251539,None,,,,,,,,,,,,,,,,,,,,,,,,,,,,,,,,,909.5140822957865,None,909.5140822957865,None,910.0141828458127,None,915.515145528122,915.515145528122,0.009903808746457798,None,915.515145528122,915.515145528122,920.1760050752907,None,920.1760050752907,None,None,0.00813432072300202,None,,NENA_027,001,2021_Jan_25_1035,test7,3.2.4,99.96925109246924,
170,12,Lägenheten är mycket mysigt för sin storlek.  ,4,,0,,inc,1,no,172,199,,,,,,,,,,,,,0,41,41,41,,,,,,,,,,,,,,,,,,,,,,,,,,,,,,,,,,,,,,,,,,,,,,,,,,,,,,,,,,,,,,,,,,,,,,,,,,,,,,,,,,,,,,,,,,,,,925.1761729473283,None,925.67695730168,None,925.67695730168,None,right,1,0.48390862808992097,925.67695730168,None,,,,,,,,,,,,,926.1767544375916,None,,,,,,,,,,,,,,,,,,,,,,,,,,,,,,,,,920.1860076058792,None,920.1860076058792,None,920.6860343871467,None,924.686781055284,924.686781055284,0.009903488011332229,None,924.686781055284,924.686781055284,927.6772891328035,None,927.6772891328035,None,None,0.008218032227887306,None,,NENA_027,001,2021_Jan_25_1035,test7,3.2.4,99.96925109246924,
160,28,Det lilla rådjuret söker en lugn plats som de högljudda arbetarna från den kommunala parkförvaltningen inte kan hitta.,16,,17,,cor,1,no,161,162,,,,,,,,,,,,,0,42,42,42,,,,,,,,,,,,,,,,,,,,,,,,,,,,,,,,,,,,,,,,,,,,,,,,,,,,,,,,,,,,,,,,,,,,,,,,,,,,,,,,,,,,,,,,,,,,,938.1784354031024,None,938.6792399636797,None,938.6792399636797,None,left,1,7.28125879010895,938.6792399636797,None,,,,,,,,,,,,,945.9702426446929,None,,,,,,,,,,,,,,,,,,,,,,,,,,,,,,,,,927.6872644010245,None,927.6872644010245,None,928.1873601400448,None,937.6890582648111,937.6890582648111,0.009908299017297395,None,937.6890582648111,937.6890582648111,947.4707744533014,None,947.4707744533014,None,None,0.00802046024637093,None,,NENA_027,001,2021_Jan_25_1035,test7,3.2.4,99.96925109246924,
180,10,Boken som de rekommenderade alla blivande studenter på programmet att läsa var förvånansvärt rolig efter den sega inledningen. ,14,,0,,cor,1,yes,181,199,,,,,,,,,,,,,0,43,43,43,,,,,,,,,,,,,,,,,,,,,,,,,,,,,,,,,,,,,,,,,,,,,,,,,,,,,,,,,,,,,,,,,,,,,,,,,,,,,,,,,,,,,,,,,,,,,957.9719563250455,None,958.4727272085802,None,958.4727272085802,None,right,0,3.823400156068601,958.4727272085802,None,,,,,,,,,,,,,962.3131570431042,None,,,,,,,,,,,,,,,,,,,,,,,,,,,,,,,,,947.4807757009557,None,947.4807757009557,None,947.9808477056795,None,957.4825583390611,957.4825583390611,0.00990701608316158,None,957.4825583390611,957.4825583390611,963.8136623591054,None,963.8136623591054,None,space,0.008380002765079553,None,123.63208376538842,NENA_027,001,2021_Jan_25_1035,test7,3.2.4,99.96925109246924,
180,56,Spacklet som målaren hade täckt den stora väggen i skolans matsal med var nu torrt och han började därför måla.,15,,0,,cor,1,no,181,199,,,,,,,,,,,,,0,44,44,44,,,,,,,,,,,,,,,,,,,,,,,,,,,,,,,,,,,,,,,,,,,,,,,,,,,,,,,,,,,,,,,,,,,,,,,,,,,,,,,,,,,,,,,,,,,,,1098.956836295256,None,1099.4575949909085,None,1099.4575949909085,None,left,1,2.7555842148967713,1099.4575949909085,None,,,,,,,,,,,,,1102.2282315607772,None,,,,,,,,,,,,,,,,,,,,,,,,,,,,,,,,,1087.4655232081323,None,1087.4655232081323,None,1087.9655499893997,None,1098.4674299701937,1098.4674299701937,0.009906053880513355,None,1098.4674299701937,1098.4674299701937,1103.7283608485457,None,1103.7283608485457,None,None,0.008221239565500582,None,,NENA_027,001,2021_Jan_25_1035,test7,3.2.4,99.96925109246924,
160,25,Filosofen med de tjocka glasögonen drog en fullständigt absurd slutsats som de två psykologerna bland deltagarna i seminariet inte kunde förstå.,19,,20,,cor,1,no,161,162,,,,,,,,,,,,,0,45,45,45,,,,,,,,,,,,,,,,,,,,,,,,,,,,,,,,,,,,,,,,,,,,,,,,,,,,,,,,,,,,,,,,,,,,,,,,,,,,,,,,,,,,,,,,,,,,,1115.7298193531378,None,1116.2305485412871,None,1116.2305485412871,None,left,1,1.902181342212316,1116.2305485412871,None,,,,,,,,,,,,,1118.150864810409,None,,,,,,,,,,,,,,,,,,,,,,,,,,,,,,,,,1103.738352153454,None,1103.738352153454,None,1104.238434421658,None,1115.2403748607612,1115.2403748607612,0.009898997739583137,None,1115.2403748607612,1115.2403748607612,1119.6511926323608,None,1119.6511926323608,None,None,0.008645570298540406,None,,NENA_027,001,2021_Jan_25_1035,test7,3.2.4,99.96925109246924,
170,113,Teet var väldigt het och brände tungan.  ,4,,0,,inc,1,no,174,199,,,,,,,,,,,,,0,46,46,46,,,,,,,,,,,,,,,,,,,,,,,,,,,,,,,,,,,,,,,,,,,,,,,,,,,,,,,,,,,,,,,,,,,,,,,,,,,,,,,,,,,,,,,,,,,,,1124.6513948229085,None,1125.1519306086147,None,1125.1519306086147,None,right,1,1.2847448450866068,1125.1519306086147,None,,,,,,,,,,,,,1126.4521245563046,None,,,,,,,,,,,,,,,,,,,,,,,,,,,,,,,,,1119.6611659761802,None,1119.6611659761802,None,1120.1612524139218,None,1124.161979517302,1124.161979517302,0.009906695348945505,None,1124.161979517302,1124.161979517302,1127.9526384038234,None,1127.9526384038234,None,None,0.007669898272979481,None,,NENA_027,001,2021_Jan_25_1035,test7,3.2.4,99.96925109246924,
180,17,Skjortan som reseledaren inför denna speciella dag hade strukit kvällen innan var otroligt skrynkligt på morgonen.  ,14,,0,,inc,1,no,182,199,,,,,,,,,,,,,0,47,47,47,,,,,,,,,,,,,,,,,,,,,,,,,,,,,,,,,,,,,,,,,,,,,,,,,,,,,,,,,,,,,,,,,,,,,,,,,,,,,,,,,,,,,,,,,,,,,1137.4436257537645,None,1137.9443876567548,None,1137.9443876567548,None,right,1,0.7319794948507479,1137.9443876567548,None,,,,,,,,,,,,,1138.6945219640065,None,,,,,,,,,,,,,,,,,,,,,,,,,,,,,,,,,1127.9626402929453,None,1127.9626402929453,None,1128.4627337868296,None,1136.9542316165844,1136.9542316165844,0.009905412413900194,None,1136.9542316165844,1136.9542316165844,1140.1948266931292,None,1140.1948266931292,None,None,0.008440621440968243,None,,NENA_027,001,2021_Jan_25_1035,test7,3.2.4,99.96925109246924,
170,88,Kajaken var för smal för det öppna havet. ,4,,0,,cor,1,no,171,199,,,,,,,,,,,,,0,48,48,48,,,,,,,,,,,,,,,,,,,,,,,,,,,,,,,,,,,,,,,,,,,,,,,,,,,,,,,,,,,,,,,,,,,,,,,,,,,,,,,,,,,,,,,,,,,,,1145.695102492069,None,1146.195816605732,None,1146.195816605732,None,left,1,0.36026577280335914,1146.195816605732,None,,,,,,,,,,,,,1146.5656829014597,None,,,,,,,,,,,,,,,,,,,,,,,,,,,,,,,,,1140.204796829611,None,1140.204796829611,None,1140.7048637025946,None,1145.2056894315983,1145.2056894315983,0.00990894048482005,None,1145.2056894315983,1145.2056894315983,1148.0661993148485,None,1148.0661993148485,None,None,0.008670266795888892,None,,NENA_027,001,2021_Jan_25_1035,test7,3.2.4,99.96925109246924,
130,52,Skådespelare spelar ofta roller skrivna för dem.,3,,4,,cor,1,no,135,136,,,,,,,,,,,,,0,49,49,49,,,,,,,,,,,,,,,,,,,,,,,,,,,,,,,,,,,,,,,,,,,,,,,,,,,,,,,,,,,,,,,,,,,,,,,,,,,,,,,,,,,,,,,,,,,,,1153.0663697527561,None,1153.5671002238396,None,1153.5671002238396,None,left,1,1.1328203304137787,1153.5671002238396,None,,,,,,,,,,,,,1154.7170352271487,None,,,,,,,,,,,,,,,,,,,,,,,,,,,,,,,,,1148.0761742623363,None,1148.0761742623363,None,1148.576253643936,None,1152.576964710629,1152.576964710629,0.00990765754977474,None,1152.576964710629,1152.576964710629,1156.2176606900073,None,1156.2176606900073,None,None,0.007698443575463898,None,,NENA_027,001,2021_Jan_25_1035,test7,3.2.4,99.96925109246924,
170,75,Mattan är redan lagd och möblerna är klara. ,4,,0,,cor,1,no,171,199,,,,,,,,,,,,,0,50,50,50,,,,,,,,,,,,,,,,,,,,,,,,,,,,,,,,,,,,,,,,,,,,,,,,,,,,,,,,,,,,,,,,,,,,,,,,,,,,,,,,,,,,,,,,,,,,,1161.717919169325,None,1162.2186807515818,None,1162.2186807515818,None,left,1,1.6170583520506625,1162.2186807515818,None,,,,,,,,,,,,,1163.84925193667,None,,,,,,,,,,,,,,,,,,,,,,,,,,,,,,,,,1156.2276305057549,None,1156.2276305057549,None,1156.7277034726803,None,1161.2284916758372,1161.2284916758372,0.00990573314811627,None,1161.2284916758372,1161.2284916758372,1165.3492673639628,None,1165.3492673639628,None,None,0.008007310163520742,None,,NENA_027,001,2021_Jan_25_1035,test7,3.2.4,99.96925109246924,
170,65,Taket var helt förstörd och byggnaden stängdes.  ,4,,0,,inc,1,no,174,199,,,,,,,,,,,,,0,51,51,51,,,,,,,,,,,,,,,,,,,,,,,,,,,,,,,,,,,,,,,,,,,,,,,,,,,,,,,,,,,,,,,,,,,,,,,,,,,,,,,,,,,,,,,,,,,,,1170.3494297835268,None,1170.850208685405,None,1170.850208685405,None,right,1,0.35335107418541156,1170.850208685405,None,,,,,,,,,,,,,1171.2200740189319,None,,,,,,,,,,,,,,,,,,,,,,,,,,,,,,,,,1165.359238141912,None,1165.359238141912,None,1165.8592408681488,None,1169.860025062134,1169.860025062134,0.009902846544719068,None,1169.860025062134,1169.860025062134,1172.7205670187575,None,1172.7205670187575,None,None,0.008044194542890182,None,,NENA_027,001,2021_Jan_25_1035,test7,3.2.4,99.96925109246924,
170,17,Rödvinet är väldigt syrlig men passar bra med huvudrätten. ,4,,0,,inc,1,no,174,199,,,,,,,,,,,,,0,52,52,52,,,,,,,,,,,,,,,,,,,,,,,,,,,,,,,,,,,,,,,,,,,,,,,,,,,,,,,,,,,,,,,,,,,,,,,,,,,,,,,,,,,,,,,,,,,,,1178.7109355129542,None,1179.211681058524,None,1179.211681058524,None,left,0,1.1036364470273838,1179.211681058524,None,,,,,,,,,,,,,1180.3316329099753,None,,,,,,,,,,,,,,,,,,,,,,,,,,,,,,,,,1172.7305127794752,None,1172.7305127794752,None,1173.2306062733596,None,1178.221502566992,1178.221502566992,0.009905091680593614,None,1178.221502566992,1178.221502566992,1181.8321124389838,None,1181.8321124389838,None,None,0.008276085034594871,None,,NENA_027,001,2021_Jan_25_1035,test7,3.2.4,99.96925109246924,
160,4,Det nya lagförslaget innebär stora praktiska förändringar som de mer erfarna medlemmarna i partiet inte kan ställa sig bakom.,15,,16,,cor,1,no,161,162,,,,,,,,,,,,,0,53,53,53,,,,,,,,,,,,,,,,,,,,,,,,,,,,,,,,,,,,,,,,,,,,,,,,,,,,,,,,,,,,,,,,,,,,,,,,,,,,,,,,,,,,,,,,,,,,,1192.833365673985,None,1193.3341872334504,None,1193.3341872334504,None,left,1,1.6528647456207182,1193.3341872334504,None,,,,,,,,,,,,,1195.0042070644167,None,,,,,,,,,,,,,,,,,,,,,,,,,,,,,,,,,1181.8421361379997,None,1181.8421361379997,None,1182.3421901816346,None,1192.3440000821074,1192.3440000821074,0.009906695349855,None,1192.3440000821074,1192.3440000821074,1196.5047497779722,None,1196.5047497779722,None,None,0.008415283476097102,None,,NENA_027,001,2021_Jan_25_1035,test7,3.2.4,99.96925109246924,
180,33,Brandbilen som brandmännen i Storstockholms brandförsvar använder när de rycker ut är mestadels rött med undantag för dess ränder.,14,,0,,inc,1,no,182,199,,,,,,,,,,,,,0,54,54,54,,,,,,,,,,,,,,,,,,,,,,,,,,,,,,,,,,,,,,,,,,,,,,,,,,,,,,,,,,,,,,,,,,,,,,,,,,,,,,,,,,,,,,,,,,,,,1207.5059940324281,None,1208.0067735757739,None,1208.0067735757739,None,left,0,1.388036503348303,1208.0067735757739,None,,,,,,,,,,,,,1209.4068731956722,None,,,,,,,,,,,,,,,,,,,,,,,,,,,,,,,,,1196.5147353096727,None,1196.5147353096727,None,1197.0148137290716,None,1207.0165912354378,1207.0165912354378,0.009906695348945505,None,1207.0165912354378,1207.0165912354378,1210.9073087841596,None,1210.9073087841596,None,None,0.008574046676585567,None,,NENA_027,001,2021_Jan_25_1035,test7,3.2.4,99.96925109246924,
130,78,Poliser kontrollerar ofta bilar som kör för fort.,3,,4,,cor,1,no,137,138,,,,,,,,,,,,,0,55,55,55,,,,,,,,,,,,,,,,,,,,,,,,,,,,,,,,,,,,,,,,,,,,,,,,,,,,,,,,,,,,,,,,,,,,,,,,,,,,,,,,,,,,,,,,,,,,,1216.4075563585302,None,1216.9082804149393,None,1216.9082804149393,None,left,1,0.40628849807126244,1216.9082804149393,None,,,,,,,,,,,,,1217.328161929483,None,,,,,,,,,,,,,,,,,,,,,,,,,,,,,,,,,1210.9172834109131,None,1210.9172834109131,None,1211.4173586229745,None,1215.9181708811611,1215.9181708811611,0.00990701608316158,None,1215.9181708811611,1215.9181708811611,1218.828679625806,None,1218.828679625806,None,None,0.008761996645262116,None,,NENA_027,001,2021_Jan_25_1035,test7,3.2.4,99.96925109246924,
180,21,Krukan som han hade använt för att sätta den nyligen inköpta rosen i var nu trasig och blomman låg på golvet.,16,,0,,cor,1,no,181,199,,,,,,,,,,,,,0,56,56,56,,,,,,,,,,,,,,,,,,,,,,,,,,,,,,,,,,,,,,,,,,,,,,,,,,,,,,,,,,,,,,,,,,,,,,,,,,,,,,,,,,,,,,,,,,,,,1230.7900845806935,None,1231.2907845820728,None,1231.2907845820728,None,right,0,2.7274478478930178,1231.2907845820728,None,,,,,,,,,,,,,1234.0310691562872,None,,,,,,,,,,,,,,,,,,,,,,,,,,,,,,,,,1218.8386795905253,None,1218.8386795905253,None,1219.3387602550602,None,1230.3007019899278,1230.3007019899278,0.009904129479764379,None,1230.3007019899278,1230.3007019899278,1235.5316651116425,None,1235.5316651116425,None,None,0.007982934399478836,None,,NENA_027,001,2021_Jan_25_1035,test7,3.2.4,99.96925109246924,
130,14,Skräddare syr ofta kläder åt rika människor.,3,,4,,cor,1,no,131,132,,,,,,,,,,,,,0,57,57,57,,,,,,,,,,,,,,,,,,,,,,,,,,,,,,,,,,,,,,,,,,,,,,,,,,,,,,,,,,,,,,,,,,,,,,,,,,,,,,,,,,,,,,,,,,,,,1240.5318082871827,None,1241.0325855853916,None,1241.0325855853916,None,left,1,2.097470020215951,1241.0325855853916,None,,,,,,,,,,,,,1243.1430571890705,None,,,,,,,,,,,,,,,,,,,,,,,,,,,,,,,,,1235.5416423042661,None,1235.5416423042661,None,1236.0417091772506,None,1240.042416074405,1240.042416074405,0.009902525810502993,None,1240.042416074405,1240.042416074405,1244.6432310588286,None,1244.6432310588286,None,None,0.008208410215956974,None,,NENA_027,001,2021_Jan_25_1035,test7,3.2.4,99.96925109246924,
160,51,Dagens utvecklade teknologi medför utmaningar för skolväsendet som vår nuvarande kunskap om påverkan på koncentration kan inte hantera.,16,,17,,inc,1,no,163,164,,,,,,,,,,,,,0,58,58,58,,,,,,,,,,,,,,,,,,,,,,,,,,,,,,,,,,,,,,,,,,,,,,,,,,,,,,,,,,,,,,,,,,,,,,,,,,,,,,,,,,,,,,,,,,,,,1255.1443612924413,None,1255.6451969641912,None,1255.6451969641912,None,right,1,1.8445195103940932,1255.6451969641912,None,,,,,,,,,,,,,1257.505239987414,None,,,,,,,,,,,,,,,,,,,,,,,,,,,,,,,,,1244.6532143453933,None,1244.6532143453933,None,1245.1532145057608,None,1254.6549976249662,1254.6549976249662,0.00990894048482005,None,1254.6549976249662,1254.6549976249662,1259.0057281762345,None,1259.0057281762345,None,None,0.008221239566410077,None,,NENA_027,001,2021_Jan_25_1035,test7,3.2.4,99.96925109246924,
150,60,Hästarna hade stamtavlor som ägarna inte har vetat om.  ,6,,7,,cor,1,no,151,152,,,,,,,,,,,,,0,59,59,59,,,,,,,,,,,,,,,,,,,,,,,,,,,,,,,,,,,,,,,,,,,,,,,,,,,,,,,,,,,,,,,,,,,,,,,,,,,,,,,,,,,,,,,,,,,,,1265.0061276180295,None,1265.5069161419196,None,1265.5069161419196,None,left,1,1.8547496336423137,1265.5069161419196,None,,,,,,,,,,,,,1267.3769301355323,None,,,,,,,,,,,,,,,,,,,,,,,,,,,,,,,,,1259.0157146701367,None,1259.0157146701367,None,1259.515833501986,None,1264.5167280283758,1264.5167280283758,0.009904129479764379,None,1264.5167280283758,1264.5167280283758,1268.877533788497,None,1268.877533788497,None,None,0.007670539740502136,None,,NENA_027,001,2021_Jan_25_1035,test7,3.2.4,99.96925109246924,
170,116,Pastan blir något klibbigt vid överkokning.  ,4,,0,,inc,1,no,172,199,,,,,,,,,,,,,0,60,60,60,,,,,,,,,,,,,,,,,,,,,,,,,,,,,,,,,,,,,,,,,,,,,,,,,,,,,,,,,,,,,,,,,,,,,,,,,,,,,,,,,,,,,,,,,,,,,1273.3775972617032,None,1273.878376805049,None,1273.878376805049,None,right,1,0.9629141995565078,1273.878376805049,None,,,,,,,,,,,,,1274.8582331227499,None,,,,,,,,,,,,,,,,,,,,,,,,,,,,,,,,,1268.8874991139728,None,1268.8874991139728,None,1269.387597098129,None,1272.888182597565,1272.888182597565,0.009907016082252085,None,1272.888182597565,1272.888182597565,1276.358865321017,None,1276.358865321017,None,None,0.007760345187307394,None,,NENA_027,001,2021_Jan_25_1035,test7,3.2.4,99.96925109246924,
180,37,Tavlan som för en liten stund sedan auktionerades ut till en beslutsam konstkännare var otroligt vacker men kostade en förmögenhet. ,16,,0,,cor,1,no,181,199,,,,,,,,,,,,,0,61,61,61,,,,,,,,,,,,,,,,,,,,,,,,,,,,,,,,,,,,,,,,,,,,,,,,,,,,,,,,,,,,,,,,,,,,,,,,,,,,,,,,,,,,,,,,,,,,,1287.860153997096,None,1288.3609386721819,None,1288.3609386721819,None,left,1,2.11201625735157,1288.3609386721819,None,,,,,,,,,,,,,1290.4911244956866,None,,,,,,,,,,,,,,,,,,,,,,,,,,,,,,,,,1276.368844438044,None,1276.368844438044,None,1276.8688853315953,None,1287.3706832045536,1287.3706832045536,0.009904770947287034,None,1287.3706832045536,1287.3706832045536,1291.991594081949,None,1291.991594081949,None,None,0.007957917167914275,None,,NENA_027,001,2021_Jan_25_1035,test7,3.2.4,99.96925109246924,
170,30,Spelet är särskilt svår för nybörjare.  ,4,,0,,inc,1,no,174,199,,,,,,,,,,,,,0,62,62,62,,,,,,,,,,,,,,,,,,,,,,,,,,,,,,,,,,,,,,,,,,,,,,,,,,,,,,,,,,,,,,,,,,,,,,,,,,,,,,,,,,,,,,,,,,,,,1296.4916921943995,None,1296.992449286383,None,1296.992449286383,None,right,1,0.7843039965673597,1296.992449286383,None,,,,,,,,,,,,,1297.7923165667635,None,,,,,,,,,,,,,,,,,,,,,,,,,,,,,,,,,1292.0015895563965,None,1292.0015895563965,None,1292.501659957451,None,1296.0022800961306,1296.0022800961306,0.00990637461472943,None,1296.0022800961306,1296.0022800961306,1299.2928878256205,None,1299.2928878256205,None,None,0.008001216222510266,None,,NENA_027,001,2021_Jan_25_1035,test7,3.2.4,99.96925109246924,
150,104,Saxofonisten spelade toner som publiken orkade inte höra.  ,6,,7,,inc,1,no,153,154,,,,,,,,,,,,,0,63,63,63,,,,,,,,,,,,,,,,,,,,,,,,,,,,,,,,,,,,,,,,,,,,,,,,,,,,,,,,,,,,,,,,,,,,,,,,,,,,,,,,,,,,,,,,,,,,,1304.7931254572459,None,1305.2939313007582,None,1305.2939313007582,None,right,1,0.6026426535463543,1305.2939313007582,None,,,,,,,,,,,,,1305.9140023047921,None,,,,,,,,,,,,,,,,,,,,,,,,,,,,,,,,,1299.30286116944,None,1299.30286116944,None,1299.8029290046252,None,1304.303764676375,1304.303764676375,0.009902205077196413,None,1304.303764676375,1304.303764676375,1307.4143150522584,None,1307.4143150522584,None,None,0.008125981646116998,None,,NENA_027,001,2021_Jan_25_1035,test7,3.2.4,99.96925109246924,
170,97,Staketet är ganska nymålad och ser bra ut. ,4,,0,,inc,1,no,174,199,,,,,,,,,,,,,0,64,64,64,,,,,,,,,,,,,,,,,,,,,,,,,,,,,,,,,,,,,,,,,,,,,,,,,,,,,,,,,,,,,,,,,,,,,,,,,,,,,,,,,,,,,,,,,,,,,1312.9145863609265,None,1313.4153610932653,None,1313.4153610932653,None,right,1,0.5290689003413718,1313.4153610932653,None,,,,,,,,,,,,,1313.9555046087835,None,,,,,,,,,,,,,,,,,,,,,,,,,,,,,,,,,1307.4243570330973,None,1307.4243570330973,None,1307.924387663169,None,1312.4251880542079,1312.4251880542079,0.009907657550684235,None,1312.4251880542079,1312.4251880542079,1315.4556707809322,None,1315.4556707809322,None,None,0.008221239565500582,None,,NENA_027,001,2021_Jan_25_1035,test7,3.2.4,99.96925109246924,
170,66,Templet är helt renoverat och har öppnat igen för besökare.,4,,0,,cor,1,no,173,199,,,,,,,,,,,,,0,65,65,65,,,,,,,,,,,,,,,,,,,,,,,,,,,,,,,,,,,,,,,,,,,,,,,,,,,,,,,,,,,,,,,,,,,,,,,,,,,,,,,,,,,,,,,,,,,,,1321.9561961107183,None,1322.4569246574001,None,1322.4569246574001,None,left,1,0.47932341859905137,1322.4569246574001,None,,,,,,,,,,,,,1322.9467950841781,None,,,,,,,,,,,,,,,,,,,,,,,,,,,,,,,,,1315.4656630480413,None,1315.4656630480413,None,1315.965788615299,None,1321.4667907478579,1321.4667907478579,0.009907978283990815,None,1321.4667907478579,1321.4667907478579,1324.4473320245258,None,1324.4473320245258,None,None,0.008762638111875276,None,,NENA_027,001,2021_Jan_25_1035,test7,3.2.4,99.96925109246924,
130,47,Vinodlare skördar ofta druvor fulla med skadedjur.,3,,4,,cor,1,no,135,136,,,,,,,,,,,,,0,66,66,66,,,,,,,,,,,,,,,,,,,,,,,,,,,,,,,,,,,,,,,,,,,,,,,,,,,,,,,,,,,,,,,,,,,,,,,,,,,,,,,,,,,,,,,,,,,,,1329.4474838598762,None,1329.9482605166186,None,1329.9482605166186,None,left,1,1.6037591276808598,1329.9482605166186,None,,,,,,,,,,,,,1331.56853646951,None,,,,,,,,,,,,,,,,,,,,,,,,,,,,,,,,,1324.4573056890786,None,1324.4573056890786,None,1324.9574020695663,None,1328.9581317388165,1328.9581317388165,0.00990733681646816,None,1328.9581317388165,1328.9581317388165,1333.0688588389883,None,1333.0688588389883,None,None,0.007782155080349185,None,,NENA_027,001,2021_Jan_25_1035,test7,3.2.4,99.96925109246924,
170,82,Silvret är nästan rent och väger ganska mycket. ,4,,0,,cor,1,no,173,199,,,,,,,,,,,,,0,67,67,67,,,,,,,,,,,,,,,,,,,,,,,,,,,,,,,,,,,,,,,,,,,,,,,,,,,,,,,,,,,,,,,,,,,,,,,,,,,,,,,,,,,,,,,,,,,,,1338.5691147524367,None,1339.0698872396406,None,1339.0698872396406,None,left,1,2.3780318559165607,1339.0698872396406,None,,,,,,,,,,,,,1341.4604517662965,None,,,,,,,,,,,,,,,,,,,,,,,,,,,,,,,,,1333.0788353901453,None,1333.0788353901453,None,1333.5788762836964,None,1338.079704257836,1338.079704257836,0.009907978283990815,None,1338.079704257836,1338.079704257836,1342.9605983736872,None,1342.9605983736872,None,None,0.008190769861357694,None,,NENA_027,001,2021_Jan_25_1035,test7,3.2.4,99.96925109246924,
140,34,Matematiker löser gärna problem som intressera allmänheten.,3,,4,,inc,1,no,133,134,,,,,,,,,,,,,0,68,68,68,,,,,,,,,,,,,,,,,,,,,,,,,,,,,,,,,,,,,,,,,,,,,,,,,,,,,,,,,,,,,,,,,,,,,,,,,,,,,,,,,,,,,,,,,,,,,1347.9607704152631,None,1348.4615496378756,None,1348.4615496378756,None,right,1,1.610098750709767,1348.4615496378756,None,,,,,,,,,,,,,1350.0817816502458,None,,,,,,,,,,,,,,,,,,,,,,,,,,,,,,,,,1342.970592885933,None,1342.970592885933,None,1343.4706392319576,None,1347.471348374249,1347.471348374249,0.009904770946377539,None,1347.471348374249,1347.471348374249,1351.5820937562437,None,1351.5820937562437,None,None,0.008393152847929741,None,,NENA_027,001,2021_Jan_25_1035,test7,3.2.4,99.96925109246924,
180,58,Vattenkannan som grannen hade fyllt med vatten och extra dyr växtnäring var helt vit och stod på köksbordet. ,14,,0,,cor,1,no,181,199,,,,,,,,,,,,,0,69,69,69,,,,,,,,,,,,,,,,,,,,,,,,,,,,,,,,,,,,,,,,,,,,,,,,,,,,,,,,,,,,,,,,,,,,,,,,,,,,,,,,,,,,,,,,,,,,,1362.083256383964,None,1362.5839769123022,None,1362.5839769123022,None,left,1,2.535464331041112,1362.5839769123022,None,,,,,,,,,,,,,1365.1342992336704,None,,,,,,,,,,,,,,,,,,,,,,,,,,,,,,,,,1351.5920619683238,None,1351.5920619683238,None,1352.092197799061,None,1361.5938462100976,1361.5938462100976,0.009905412413900194,None,1361.5938462100976,1361.5938462100976,1366.6347713858038,None,1366.6347713858038,None,None,0.008687907152307162,None,,NENA_027,001,2021_Jan_25_1035,test7,3.2.4,99.96925109246924,
130,9,Meteorologer förutspår ofta väder utifrån datormodeller.,3,,4,,cor,1,no,131,132,,,,,,,,,,,,,0,70,70,70,,,,,,,,,,,,,,,,,,,,,,,,,,,,,,,,,,,,,,,,,,,,,,,,,,,,,,,,,,,,,,,,,,,,,,,,,,,,,,,,,,,,,,,,,,,,,1371.1348524993655,None,1371.6356156852908,None,1371.6356156852908,None,left,1,1.5715577813043637,1371.6356156852908,None,,,,,,,,,,,,,1373.2258914874383,None,,,,,,,,,,,,,,,,,,,,,,,,,,,,,,,,,1366.6447610870437,None,1366.6447610870437,None,1367.144858108999,None,1370.645468946399,1370.645468946399,0.009908299017297395,None,1370.645468946399,1370.645468946399,1374.7262077629755,None,1374.7262077629755,None,None,0.007694594771237462,None,,NENA_027,001,2021_Jan_25_1035,test7,3.2.4,99.96925109246924,
150,31,Lakrits innehåller sötningsmedel som barnen inte fick äta.  ,6,,7,,cor,1,no,151,152,,,,,,,,,,,,,0,71,71,71,,,,,,,,,,,,,,,,,,,,,,,,,,,,,,,,,,,,,,,,,,,,,,,,,,,,,,,,,,,,,,,,,,,,,,,,,,,,,,,,,,,,,,,,,,,,,1380.2264534129436,None,1380.7272390502303,None,1380.7272390502303,None,left,1,1.0637034932078677,1380.7272390502303,None,,,,,,,,,,,,,1381.8074311440796,None,,,,,,,,,,,,,,,,,,,,,,,,,,,,,,,,,1374.7361942568778,None,1374.7361942568778,None,1375.2362652993997,None,1379.7370688977762,1379.7370688977762,0.009907978283990815,None,1379.7370688977762,1379.7370688977762,1383.3077185535801,None,1383.3077185535801,None,None,0.007915901048363594,None,,NENA_027,001,2021_Jan_25_1035,test7,3.2.4,99.96925109246924,
170,114,Havet är ganska förorenat till följd av ansvarslös båttrafik. ,4,,0,,cor,1,no,173,199,,,,,,,,,,,,,0,72,72,72,,,,,,,,,,,,,,,,,,,,,,,,,,,,,,,,,,,,,,,,,,,,,,,,,,,,,,,,,,,,,,,,,,,,,,,,,,,,,,,,,,,,,,,,,,,,,1389.3080365290061,None,1389.8088494286612,None,1389.8088494286612,None,left,1,5.686056517774887,1389.8088494286612,None,,,,,,,,,,,,,1395.5095695721184,None,,,,,,,,,,,,,,,,,,,,,,,,,,,,,,,,,1383.3177124243584,None,1383.3177124243584,None,1383.8177719204668,None,1388.8186840872122,1388.8186840872122,0.009903808745548304,None,1388.8186840872122,1388.8186840872122,1397.0101427553789,None,1397.0101427553789,None,None,0.007868432456234586,None,,NENA_027,001,2021_Jan_25_1035,test7,3.2.4,99.96925109246924,
150,88,Fabriken använde kemikalier som miljökontoret har inte haft rätt att kontrollera. ,6,,7,,inc,1,no,153,154,,,,,,,,,,,,,0,73,73,73,,,,,,,,,,,,,,,,,,,,,,,,,,,,,,,,,,,,,,,,,,,,,,,,,,,,,,,,,,,,,,,,,,,,,,,,,,,,,,,,,,,,,,,,,,,,,1404.0106348892232,None,1404.511430469256,None,1404.511430469256,None,left,0,1.359064304227104,1404.511430469256,None,,,,,,,,,,,,,1405.8814789417456,None,,,,,,,,,,,,,,,,,,,,,,,,,,,,,,,,,1397.020126683411,None,1397.020126683411,None,1397.5201656525596,None,1403.5212625619379,1403.5212625619379,0.009903488011332229,None,1403.5212625619379,1403.5212625619379,1407.381924152245,None,1407.381924152245,None,None,0.008291159520013025,None,,NENA_027,001,2021_Jan_25_1035,test7,3.2.4,99.96925109246924,
170,61,Jordskredet var ganska farligt för de närliggande husen. ,4,,0,,cor,1,no,173,199,,,,,,,,,,,,,0,74,74,74,,,,,,,,,,,,,,,,,,,,,,,,,,,,,,,,,,,,,,,,,,,,,,,,,,,,,,,,,,,,,,,,,,,,,,,,,,,,,,,,,,,,,,,,,,,,,1412.892234426853,None,1413.3929491819845,None,1413.3929491819845,None,left,1,2.357292250334467,1413.3929491819845,None,,,,,,,,,,,,,1415.7633944021054,None,,,,,,,,,,,,,,,,,,,,,,,,,,,,,,,,,1407.3919356633787,None,1407.3919356633787,None,1407.8920233840554,None,1412.4027937832816,1412.4027937832816,0.009907978283990815,None,1412.4027937832816,1412.4027937832816,1417.2637174130512,None,1417.2637174130512,None,None,0.007722498605289729,None,,NENA_027,001,2021_Jan_25_1035,test7,3.2.4,99.96925109246924,
140,42,Troende ber ofta böner i svåra tid.,3,,4,,inc,1,no,135,136,,,,,,,,,,,,,0,75,75,75,,,,,,,,,,,,,,,,,,,,,,,,,,,,,,,,,,,,,,,,,,,,,,,,,,,,,,,,,,,,,,,,,,,,,,,,,,,,,,,,,,,,,,,,,,,,,1422.2638682862007,None,1422.7646590552276,None,1422.7646590552276,None,right,1,0.3695664096840119,1422.7646590552276,None,,,,,,,,,,,,,1423.1452914202764,None,,,,,,,,,,,,,,,,,,,,,,,,,,,,,,,,,1417.273696209344,None,1417.273696209344,None,1417.7737800812165,None,1421.7744847332342,1421.7744847332342,0.009908940485729545,None,1421.7744847332342,1421.7744847332342,1424.6449752088854,None,1424.6449752088854,None,None,0.007713838794188632,None,,NENA_027,001,2021_Jan_25_1035,test7,3.2.4,99.96925109246924,
170,100,Olyckan var väldigt hemskt och hela landet sörjde.,4,,0,,inc,1,no,172,199,,,,,,,,,,,,,0,76,76,76,,,,,,,,,,,,,,,,,,,,,,,,,,,,,,,,,,,,,,,,,,,,,,,,,,,,,,,,,,,,,,,,,,,,,,,,,,,,,,,,,,,,,,,,,,,,,1430.1452705725833,None,1430.6460424183197,None,1430.6460424183197,None,right,1,0.7199115672938206,1430.6460424183197,None,,,,,,,,,,,,,1431.375891599695,None,,,,,,,,,,,,,,,,,,,,,,,,,,,,,,,,,1424.65498415415,None,1424.65498415415,None,1425.155067384554,None,1429.655867775593,1429.655867775593,0.009903488012241723,None,1429.655867775593,1429.655867775593,1432.876464141487,None,1432.876464141487,None,None,0.007923277925328875,None,,NENA_027,001,2021_Jan_25_1035,test7,3.2.4,99.96925109246924,
170,96,Sagan är ganska komisk men kan inte visas på teve.,4,,0,,cor,1,no,171,199,,,,,,,,,,,,,0,77,77,77,,,,,,,,,,,,,,,,,,,,,,,,,,,,,,,,,,,,,,,,,,,,,,,,,,,,,,,,,,,,,,,,,,,,,,,,,,,,,,,,,,,,,,,,,,,,,1439.3668696804307,None,1439.8676819386174,None,1439.8676819386174,None,left,1,1.0820738386792073,1439.8676819386174,None,,,,,,,,,,,,,1440.9678416319448,None,,,,,,,,,,,,,,,,,,,,,,,,,,,,,,,,,1432.886438126774,None,1432.886438126774,None,1433.3865303377224,None,1438.877478429854,1438.877478429854,0.009904129478854884,None,1438.877478429854,1438.877478429854,1442.4681046656813,None,1442.4681046656813,None,None,0.007538076707533037,None,,NENA_027,001,2021_Jan_25_1035,test7,3.2.4,99.96925109246924,
170,24,Spriten är ganska dyr att importera.  ,4,,0,,cor,1,no,171,199,,,,,,,,,,,,,0,78,78,78,,,,,,,,,,,,,,,,,,,,,,,,,,,,,,,,,,,,,,,,,,,,,,,,,,,,,,,,,,,,,,,,,,,,,,,,,,,,,,,,,,,,,,,,,,,,,1446.9682460771855,None,1447.4690134326493,None,1447.4690134326493,None,left,1,1.0404759560351522,1447.4690134326493,None,,,,,,,,,,,,,1448.5191373802018,None,,,,,,,,,,,,,,,,,,,,,,,,,,,,,,,,,1442.4781251573595,None,1442.4781251573595,None,1442.9782196134447,None,1446.4788509778045,1446.4788509778045,0.009906053880513355,None,1446.4788509778045,1446.4788509778045,1450.0195001621312,None,1450.0195001621312,None,None,0.00840694439921208,None,,NENA_027,001,2021_Jan_25_1035,test7,3.2.4,99.96925109246924,
160,22,Kassörskan i snabbköpet såg inbrottstjuvarna tvärsöver gatan som de boende i det drabbade huset inte hade lagt märke till.,15,,16,,cor,1,no,161,162,,,,,,,,,,,,,0,79,79,79,,,,,,,,,,,,,,,,,,,,,,,,,,,,,,,,,,,,,,,,,,,,,,,,,,,,,,,,,,,,,,,,,,,,,,,,,,,,,,,,,,,,,,,,,,,,,1461.0207193993556,None,1461.5214809816116,None,1461.5214809816116,None,left,1,0.9877903081323893,1461.5214809816116,None,,,,,,,,,,,,,1462.5216496875573,None,,,,,,,,,,,,,,,,,,,,,,,,,,,,,,,,,1450.0294686949437,None,1450.0294686949437,None,1450.5295118336317,None,1460.5313300731814,1460.5313300731814,0.00990509167968412,None,1460.5313300731814,1460.5313300731814,1464.0219524922775,None,1464.0219524922775,None,None,0.008374229557375656,None,,NENA_027,001,2021_Jan_25_1035,test7,3.2.4,99.96925109246924,
180,4,Rummet som hade lånats ut till ett yngre par på genomresa var fruktansvärt stökig när de åkte. ,14,,0,,inc,1,no,182,199,,,,,,,,,,,,,0,80,80,80,,,,,,,,,,,,,,,,,,,,,,,,,,,,,,,,,,,,,,,,,,,,,,,,,,,,,,,,,,,,,,,,,,,,,,,,,,,,,,,,,,,,,,,,,,,,,1474.0229901942075,None,1474.5237145713509,None,1474.5237145713509,None,left,0,1.0492794556248555,1474.5237145713509,None,,,,,,,,,,,,,1475.584095904519,None,,,,,,,,,,,,,,,,,,,,,,,,,,,,,,,,,1464.0318940834568,None,1464.0318940834568,None,1464.5320052176967,None,1473.5336213949931,1473.5336213949931,0.00990861975151347,None,1473.5336213949931,1473.5336213949931,1477.084269453543,None,1477.084269453543,None,None,0.008228937175772444,None,,NENA_027,001,2021_Jan_25_1035,test7,3.2.4,99.96925109246924,
150,33,Barn berättar saker men lärare kan inte veta om dem. ,6,,7,,cor,1,no,155,156,,,,,,,,,,,,,0,81,81,81,,,,,,,,,,,,,,,,,,,,,,,,,,,,,,,,,,,,,,,,,,,,,,,,,,,,,,,,,,,,,,,,,,,,,,,,,,,,,,,,,,,,,,,,,,,,,1483.584708505955,None,1484.085500557916,None,1484.085500557916,None,left,1,3.615144854580649,1484.085500557916,None,,,,,,,,,,,,,1487.7165509192064,None,,,,,,,,,,,,,,,,,,,,,,,,,,,,,,,,,1477.09425113644,None,1477.09425113644,None,1477.5942609188187,None,1483.0952412414836,1483.0952412414836,0.009904770945468044,None,1483.0952412414836,1483.0952412414836,1489.2164406188747,None,1489.2164406188747,None,None,0.007982934399478836,None,,NENA_027,001,2021_Jan_25_1035,test7,3.2.4,99.96925109246924,
170,89,Seglet är för bred för den starka vinden. ,4,,0,,inc,1,no,174,199,,,,,,,,,,,,,0,82,82,82,,,,,,,,,,,,,,,,,,,,,,,,,,,,,,,,,,,,,,,,,,,,,,,,,,,,,,,,,,,,,,,,,,,,,,,,,,,,,,,,,,,,,,,,,,,,,1494.7166990981932,None,1495.2174411156911,None,1495.2174411156911,None,right,1,0.49109819551995315,1495.2174411156911,None,,,,,,,,,,,,,1495.7178085161859,None,,,,,,,,,,,,,,,,,,,,,,,,,,,,,,,,,1489.2263745124446,None,1489.2263745124446,None,1489.7264609501863,None,1494.227262303426,1494.227262303426,0.009901884342980338,None,1494.227262303426,1494.227262303426,1497.2177755126847,None,1497.2177755126847,None,None,0.008045156744628912,None,,NENA_027,001,2021_Jan_25_1035,test7,3.2.4,99.96925109246924,
160,55,Meteorologer i hela Europa förutspådde det extrema vädret som invånarna i de södra delarna av kontinenten inte hade mått bra av.,17,,18,,cor,1,no,161,162,,,,,,,,,,,,,0,83,83,83,,,,,,,,,,,,,,,,,,,,,,,,,,,,,,,,,,,,,,,,,,,,,,,,,,,,,,,,,,,,,,,,,,,,,,,,,,,,,,,,,,,,,,,,,,,,,1509.2191936048257,None,1509.7199959202671,None,1509.7199959202671,None,left,1,3.428167991350165,1509.7199959202671,None,,,,,,,,,,,,,1513.160441919771,None,,,,,,,,,,,,,,,,,,,,,,,,,,,,,,,,,1497.2277732322682,None,1497.2277732322682,None,1497.7278846872414,None,1508.7298334654224,1508.7298334654224,0.009903167277116154,None,1508.7298334654224,1508.7298334654224,1514.6608864888028,None,1514.6608864888028,None,None,0.008694963294146874,None,,NENA_027,001,2021_Jan_25_1035,test7,3.2.4,99.96925109246924,
150,97,Mannen köpte bilen men mekanikern kunde inte reparera den.  ,6,,7,,cor,1,no,155,156,,,,,,,,,,,,,0,84,84,84,,,,,,,,,,,,,,,,,,,,,,,,,,,,,,,,,,,,,,,,,,,,,,,,,,,,,,,,,,,,,,,,,,,,,,,,,,,,,,,,,,,,,,,,,,,,,1520.6612637999697,None,1521.1620164016813,None,1521.1620164016813,None,right,0,2.506056575506591,1521.1620164016813,None,,,,,,,,,,,,,1523.6821801298393,None,,,,,,,,,,,,,,,,,,,,,,,,,,,,,,,,,1514.6708543801478,None,1514.6708543801478,None,1515.1709485154997,None,1520.1718398345529,1520.1718398345529,0.009906695348945505,None,1520.1718398345529,1520.1718398345529,1525.1827725571236,None,1525.1827725571236,None,None,0.00807370204711333,None,,NENA_027,001,2021_Jan_25_1035,test7,3.2.4,99.96925109246924,
130,71,Programmerare utvecklar gärna program för moderna mobiltelefoner.,3,,4,,cor,1,no,137,138,,,,,,,,,,,,,0,85,85,85,,,,,,,,,,,,,,,,,,,,,,,,,,,,,,,,,,,,,,,,,,,,,,,,,,,,,,,,,,,,,,,,,,,,,,,,,,,,,,,,,,,,,,,,,,,,,1530.1828961679057,None,1530.683704256554,None,1530.683704256554,None,left,1,1.112043519719009,1530.683704256554,None,,,,,,,,,,,,,1531.8136658871763,None,,,,,,,,,,,,,,,,,,,,,,,,,,,,,,,,,1525.1927391655345,None,1525.1927391655345,None,1525.692798661642,None,1529.6935225576844,1529.6935225576844,0.009906695348945505,None,1529.6935225576844,1529.6935225576844,1533.3142230337496,None,1533.3142230337496,None,None,0.00823503111678292,None,,NENA_027,001,2021_Jan_25_1035,test7,3.2.4,99.96925109246924,
170,87,Plasten var för mjukt för att kunna användas. ,4,,0,,inc,1,no,172,199,,,,,,,,,,,,,0,86,86,86,,,,,,,,,,,,,,,,,,,,,,,,,,,,,,,,,,,,,,,,,,,,,,,,,,,,,,,,,,,,,,,,,,,,,,,,,,,,,,,,,,,,,,,,,,,,,1538.8144542506998,None,1539.3152193610276,None,1539.3152193610276,None,right,1,0.7042655341774662,1539.3152193610276,None,,,,,,,,,,,,,1540.0353230478295,None,,,,,,,,,,,,,,,,,,,,,,,,,,,,,,,,,1533.3241934909656,None,1533.3241934909656,None,1533.8242064806818,None,1538.325046001236,1538.325046001236,0.00990701608316158,None,1538.325046001236,1538.325046001236,1541.5356386819,None,1541.5356386819,None,None,0.008392832115532656,None,,NENA_027,001,2021_Jan_25_1035,test7,3.2.4,99.96925109246924,
170,81,Guldet är redan vägd och transporteras nu till banken. ,4,,0,,inc,1,yes,174,199,,,,,,,,,,,,,0,87,87,87,,,,,,,,,,,,,,,,,,,,,,,,,,,,,,,,,,,,,,,,,,,,,,,,,,,,,,,,,,,,,,,,,,,,,,,,,,,,,,,,,,,,,,,,,,,,,1547.5359970697764,None,1548.0367050894993,None,1548.0367050894993,None,right,1,2.798584024701995,1548.0367050894993,None,,,,,,,,,,,,,1550.847250878891,None,,,,,,,,,,,,,,,,,,,,,,,,,,,,,,,,,1541.5456238928673,None,1541.5456238928673,None,1542.0456772950338,None,1547.046594272786,1547.046594272786,0.009907978283990815,None,1547.046594272786,1547.046594272786,1552.3473055639924,None,1552.3473055639924,None,space,0.007876771533119609,None,81.6376690226698,NENA_027,001,2021_Jan_25_1035,test7,3.2.4,99.96925109246924,
170,38,Tältet var lagom rymlig för familjen.  ,4,,0,,inc,1,no,174,199,,,,,,,,,,,,,0,88,88,88,,,,,,,,,,,,,,,,,,,,,,,,,,,,,,,,,,,,,,,,,,,,,,,,,,,,,,,,,,,,,,,,,,,,,,,,,,,,,,,,,,,,,,,,,,,,,1638.4820387504087,None,1638.9828269535647,None,1638.9828269535647,None,left,0,0.28245352327576256,1638.9828269535647,None,,,,,,,,,,,,,1639.2827049785255,None,,,,,,,,,,,,,,,,,,,,,,,,,,,,,,,,,1633.992139457594,None,1633.992139457594,None,1634.4919875901705,None,1637.9926340290158,1637.9926340290158,0.009909902685649286,None,1637.9926340290158,1637.9926340290158,1640.783151471959,None,1640.783151471959,None,None,0.008519201206581783,None,,NENA_027,001,2021_Jan_25_1035,test7,3.2.4,99.96925109246924,
140,45,Ekorrar samlar gärna nötter innan de första kall dagarna.,3,,4,,inc,1,no,135,136,,,,,,,,,,,,,0,89,89,89,,,,,,,,,,,,,,,,,,,,,,,,,,,,,,,,,,,,,,,,,,,,,,,,,,,,,,,,,,,,,,,,,,,,,,,,,,,,,,,,,,,,,,,,,,,,,1646.7835146708421,None,1647.2842672725537,None,1647.2842672725537,None,left,0,1.1489359177203369,1647.2842672725537,None,,,,,,,,,,,,,1648.4444779433015,None,,,,,,,,,,,,,,,,,,,,,,,,,,,,,,,,,1640.7931148730322,None,1640.7931148730322,None,1641.2931782179458,None,1646.2940698577322,1646.2940698577322,0.00990829901820689,None,1646.2940698577322,1646.2940698577322,1649.9447862004952,None,1649.9447862004952,None,None,0.007770608666760381,None,,NENA_027,001,2021_Jan_25_1035,test7,3.2.4,99.96925109246924,
170,77,Resultatet blev ganska dåligt men tränaren var nöjd. ,4,,0,,cor,1,no,173,199,,,,,,,,,,,,,0,90,90,90,,,,,,,,,,,,,,,,,,,,,,,,,,,,,,,,,,,,,,,,,,,,,,,,,,,,,,,,,,,,,,,,,,,,,,,,,,,,,,,,,,,,,,,,,,,,,1655.4450366614692,None,1655.9458011303295,None,1655.9458011303295,None,left,1,0.7191847846479504,1655.9458011303295,None,,,,,,,,,,,,,1656.67635207712,None,,,,,,,,,,,,,,,,,,,,,,,,,,,,,,,,,1649.954759865048,None,1649.954759865048,None,1650.4548379637126,None,1654.9556203936618,1654.9556203936618,0.009907016082252085,None,1654.9556203936618,1654.9556203936618,1658.1762122692842,None,1658.1762122692842,None,None,0.007896977758719004,None,,NENA_027,001,2021_Jan_25_1035,test7,3.2.4,99.96925109246924,
170,4,Löken är ganska starkt men smakar helt okej. ,4,,0,,inc,1,no,172,199,,,,,,,,,,,,,0,91,91,91,,,,,,,,,,,,,,,,,,,,,,,,,,,,,,,,,,,,,,,,,,,,,,,,,,,,,,,,,,,,,,,,,,,,,,,,,,,,,,,,,,,,,,,,,,,,,1663.6765130854556,None,1664.1772534992851,None,1664.1772534992851,None,right,1,0.7675530357291791,1664.1772534992851,None,,,,,,,,,,,,,1664.9571214275475,None,,,,,,,,,,,,,,,,,,,,,,,,,,,,,,,,,1658.1862109510685,None,1658.1862109510685,None,1658.686308293757,None,1663.187084309032,1663.187084309032,0.0099054124129907,None,1663.187084309032,1663.187084309032,1666.4576121822372,None,1666.4576121822372,None,None,0.008032327395085304,None,,NENA_027,001,2021_Jan_25_1035,test7,3.2.4,99.96925109246924,
170,10,Ämnet är väldigt farligt för småbarn.  ,4,,0,,cor,1,no,173,199,,,,,,,,,,,,,0,92,92,92,,,,,,,,,,,,,,,,,,,,,,,,,,,,,,,,,,,,,,,,,,,,,,,,,,,,,,,,,,,,,,,,,,,,,,,,,,,,,,,,,,,,,,,,,,,,,1670.9577388399894,None,1671.4585366651581,None,1671.4585366651581,None,left,1,1.7021223913516224,1671.4585366651581,None,,,,,,,,,,,,,1673.1787894931476,None,,,,,,,,,,,,,,,,,,,,,,,,,,,,,,,,,1666.4675438306704,None,1666.4675438306704,None,1666.9675972328378,None,1670.4683719651775,1670.4683719651775,0.009903808745548304,None,1670.4683719651775,1670.4683719651775,1674.6791115418916,None,1674.6791115418916,None,None,0.008241125056883902,None,,NENA_027,001,2021_Jan_25_1035,test7,3.2.4,99.96925109246924,
140,24,Cowboys rider gärna hästar på öppen slätter.,3,,4,,inc,1,no,133,134,,,,,,,,,,,,,0,93,93,93,,,,,,,,,,,,,,,,,,,,,,,,,,,,,,,,,,,,,,,,,,,,,,,,,,,,,,,,,,,,,,,,,,,,,,,,,,,,,,,,,,,,,,,,,,,,,1679.6693065191375,None,1680.1699600141246,None,1680.1699600141246,None,right,1,0.48652870198111486,1680.1699600141246,None,,,,,,,,,,,,,1680.6699774941135,None,,,,,,,,,,,,,,,,,,,,,,,,,,,,,,,,,1674.689082319841,None,1674.689082319841,None,1675.189185115004,None,1679.1799030806797,1679.1799030806797,0.009904129478854884,None,1679.1799030806797,1679.1799030806797,1682.1704425901041,None,1682.1704425901041,None,None,0.008295970525068697,None,,NENA_027,001,2021_Jan_25_1035,test7,3.2.4,99.96925109246924,
170,14,Havet är helt frusen men isen är mycket tunn. ,4,,0,,inc,1,no,174,199,,,,,,,,,,,,,0,94,94,94,,,,,,,,,,,,,,,,,,,,,,,,,,,,,,,,,,,,,,,,,,,,,,,,,,,,,,,,,,,,,,,,,,,,,,,,,,,,,,,,,,,,,,,,,,,,,1688.170798091378,None,1688.6715436369468,None,1688.6715436369468,None,right,1,0.3126669619559834,1688.6715436369468,None,,,,,,,,,,,,,1689.001573198976,None,,,,,,,,,,,,,,,,,,,,,,,,,,,,,,,,,1682.1804255559355,None,1682.1804255559355,None,1682.6805113522105,None,1687.6813831065047,1687.6813831065047,0.00990573314811627,None,1687.6813831065047,1687.6813831065047,1690.5019260381584,None,1690.5019260381584,None,None,0.008654550842038589,None,,NENA_027,001,2021_Jan_25_1035,test7,3.2.4,99.96925109246924,
150,114,Mamman kokade soppan men barnen inte fick smaka den.  ,6,,7,,inc,1,no,157,158,,,,,,,,,,,,,0,95,95,95,,,,,,,,,,,,,,,,,,,,,,,,,,,,,,,,,,,,,,,,,,,,,,,,,,,,,,,,,,,,,,,,,,,,,,,,,,,,,,,,,,,,,,,,,,,,,1696.502255559999,None,1697.0030418387532,None,1697.0030418387532,None,right,1,0.3252750051242401,1697.0030418387532,None,,,,,,,,,,,,,1697.3428710993567,None,,,,,,,,,,,,,,,,,,,,,,,,,,,,,,,,,1690.5119029100488,None,1690.5119029100488,None,1691.0119518219435,None,1696.0128194067001,1696.0128194067001,0.00990926121812663,None,1696.0128194067001,1696.0128194067001,1698.8433945688873,None,1698.8433945688873,None,None,0.006899816572513373,None,,NENA_027,001,2021_Jan_25_1035,test7,3.2.4,99.96925109246924,
150,75,Artisten övade sången som gitarristen ville inte spela.  ,6,,7,,inc,1,no,153,154,,,,,,,,,,,,,0,96,96,96,,,,,,,,,,,,,,,,,,,,,,,,,,,,,,,,,,,,,,,,,,,,,,,,,,,,,,,,,,,,,,,,,,,,,,,,,,,,,,,,,,,,,,,,,,,,,1704.34365433114,None,1704.844428101279,None,1704.844428101279,None,right,1,0.41973718436111085,1704.844428101279,None,,,,,,,,,,,,,1705.2750391214977,None,,,,,,,,,,,,,,,,,,,,,,,,,,,,,,,,,1698.853376572517,None,1698.853376572517,None,1699.3534642931945,None,1703.8542598732265,1703.8542598732265,0.009905733147206774,None,1703.8542598732265,1703.8542598732265,1706.774805980145,None,1706.774805980145,None,None,0.007836679816136893,None,,NENA_027,001,2021_Jan_25_1035,test7,3.2.4,99.96925109246924,
150,47,Djuren fick rättigheter som djurrättsaktivisterna inte hade krävt från början. ,6,,7,,cor,1,no,151,152,,,,,,,,,,,,,0,97,97,97,,,,,,,,,,,,,,,,,,,,,,,,,,,,,,,,,,,,,,,,,,,,,,,,,,,,,,,,,,,,,,,,,,,,,,,,,,,,,,,,,,,,,,,,,,,,,1713.275228995869,None,1713.7760127087531,None,1713.7760127087531,None,left,1,0.48775839512563834,1713.7760127087531,None,,,,,,,,,,,,,1714.2762614377662,None,,,,,,,,,,,,,,,,,,,,,,,,,,,,,,,,,1706.7847745129575,None,1706.7847745129575,None,1707.2848843642623,None,1712.785839028228,1712.785839028228,0.00990637461472943,None,1712.785839028228,1712.785839028228,1715.7763589728945,None,1715.7763589728945,None,None,0.008065362969318812,None,,NENA_027,001,2021_Jan_25_1035,test7,3.2.4,99.96925109246924,
180,60,Gräset som det här året hade vuxit på den stora ängen var makalöst grön och såg inbjudande ut. ,14,,0,,inc,1,no,182,199,,,,,,,,,,,,,0,98,98,98,,,,,,,,,,,,,,,,,,,,,,,,,,,,,,,,,,,,,,,,,,,,,,,,,,,,,,,,,,,,,,,,,,,,,,,,,,,,,,,,,,,,,,,,,,,,,1726.2775244872191,None,1726.7783008232273,None,1726.7783008232273,None,left,0,3.165170497242798,1726.7783008232273,None,,,,,,,,,,,,,1729.9585483719393,None,,,,,,,,,,,,,,,,,,,,,,,,,,,,,,,,,1715.786317883696,None,1715.786317883696,None,1716.2864787316648,None,1725.7881236146304,1725.7881236146304,0.00990829901820689,None,1725.7881236146304,1725.7881236146304,1731.4590958965007,None,1731.4590958965007,None,None,0.008272877696981595,None,,NENA_027,001,2021_Jan_25_1035,test7,3.2.4,99.96925109246924,
170,1,Trädet är mycket gammal och måste därför fällas snart. ,4,,0,,inc,1,no,174,199,,,,,,,,,,,,,0,99,99,99,,,,,,,,,,,,,,,,,,,,,,,,,,,,,,,,,,,,,,,,,,,,,,,,,,,,,,,,,,,,,,,,,,,,,,,,,,,,,,,,,,,,,,,,,,,,,1737.459505281041,None,1737.9602601278893,None,1737.9602601278893,None,right,1,0.526942435671117,1737.9602601278893,None,,,,,,,,,,,,,1738.5000925316826,None,,,,,,,,,,,,,,,,,,,,,,,,,,,,,,,,,1731.4691253687233,None,1731.4691253687233,None,1731.9692137308675,None,1736.9701137097318,1736.9701137097318,0.0099054124129907,None,1736.9701137097318,1736.9701137097318,1740.0006416599124,None,1740.0006416599124,None,None,0.008648136168631027,None,,NENA_027,001,2021_Jan_25_1035,test7,3.2.4,99.96925109246924,
170,118,Golvet var hemskt hård att ligga på.  ,4,,0,,inc,1,no,174,199,,,,,,,,,,,,,0,100,100,100,,,,,,,,,,,,,,,,,,,,,,,,,,,,,,,,,,,,,,,,,,,,,,,,,,,,,,,,,,,,,,,,,,,,,,,,,,,,,,,,,,,,,,,,,,,,,1745.0008226820328,None,1745.501557964123,None,1745.501557964123,None,right,1,0.44961609775418765,1745.501557964123,None,,,,,,,,,,,,,1745.9614215047477,None,,,,,,,,,,,,,,,,,,,,,,,,,,,,,,,,,1740.0106329648206,None,1740.0106329648206,None,1740.5106818767154,None,1744.5114593352919,1744.5114593352919,0.00990894048482005,None,1744.5114593352919,1744.5114593352919,1747.4619792927886,None,1747.4619792927886,None,None,0.008802409094641916,None,,NENA_027,001,2021_Jan_25_1035,test7,3.2.4,99.96925109246924,
130,60,Sjömän styr ofta båtar genom våldsamma åskväder.,3,,4,,cor,1,no,137,138,,,,,,,,,,,,,0,101,101,101,,,,,,,,,,,,,,,,,,,,,,,,,,,,,,,,,,,,,,,,,,,,,,,,,,,,,,,,,,,,,,,,,,,,,,,,,,,,,,,,,,,,,,,,,,,,,1752.4621375428142,None,1752.9629209349641,None,1752.9629209349641,None,left,1,2.2038545138948393,1752.9629209349641,None,,,,,,,,,,,,,1755.1830225369977,None,,,,,,,,,,,,,,,,,,,,,,,,,,,,,,,,,1747.4719507122054,None,1747.4719507122054,None,1747.972028490136,None,1751.9727328214212,1751.9727328214212,0.009900280673718953,None,1751.9727328214212,1751.9727328214212,1756.6836140020803,None,1756.6836140020803,None,None,0.007911731509921083,None,,NENA_027,001,2021_Jan_25_1035,test7,3.2.4,99.96925109246924,
180,43,Myntet som på den här tiden faktiskt räckte till ett par nya skor såg fantastiskt blankt ut i solskenet. ,16,,0,,cor,1,no,181,199,,,,,,,,,,,,,0,102,102,102,,,,,,,,,,,,,,,,,,,,,,,,,,,,,,,,,,,,,,,,,,,,,,,,,,,,,,,,,,,,,,,,,,,,,,,,,,,,,,,,,,,,,,,,,,,,,1767.6848492759918,None,1768.1856150277863,None,1768.1856150277863,None,left,1,1.6289704030123175,1768.1856150277863,None,,,,,,,,,,,,,1769.8258585801568,None,,,,,,,,,,,,,,,,,,,,,,,,,,,,,,,,,1756.6936049862552,None,1756.6936049862552,None,1757.1936577469542,None,1767.1953913127982,1767.1953913127982,0.00990733681646816,None,1767.1953913127982,1767.1953913127982,1771.3261588190069,None,1771.3261588190069,None,None,0.007925523060293926,None,,NENA_027,001,2021_Jan_25_1035,test7,3.2.4,99.96925109246924,
170,78,Slaget var mycket våldsam och många skadades.  ,4,,0,,inc,1,no,174,199,,,,,,,,,,,,,0,103,103,103,,,,,,,,,,,,,,,,,,,,,,,,,,,,,,,,,,,,,,,,,,,,,,,,,,,,,,,,,,,,,,,,,,,,,,,,,,,,,,,,,,,,,,,,,,,,,1776.3263587644178,None,1776.8270459364476,None,1776.8270459364476,None,right,1,1.467286281480483,1776.8270459364476,None,,,,,,,,,,,,,1778.3070932510882,None,,,,,,,,,,,,,,,,,,,,,,,,,,,,,,,,,1771.3361664813356,None,1771.3361664813356,None,1771.8362253359765,None,1775.836956608895,1775.836956608895,0.00990669534803601,None,1775.836956608895,1775.836956608895,1779.807702035793,None,1779.807702035793,None,None,0.00819461866558413,None,,NENA_027,001,2021_Jan_25_1035,test7,3.2.4,99.96925109246924,
180,35,Staketet som löper runt hela odlingen för att hålla obehöriga på avstånd är för högt för nyfikna rådjur. ,15,,0,,cor,1,no,181,199,,,,,,,,,,,,,0,104,104,104,,,,,,,,,,,,,,,,,,,,,,,,,,,,,,,,,,,,,,,,,,,,,,,,,,,,,,,,,,,,,,,,,,,,,,,,,,,,,,,,,,,,,,,,,,,,,1790.3088261754647,None,1790.8096070017455,None,1790.8096070017455,None,left,1,1.3324472529320701,1790.8096070017455,None,,,,,,,,,,,,,1792.1595368091675,None,,,,,,,,,,,,,,,,,,,,,,,,,,,,,,,,,1779.817686926027,None,1779.817686926027,None,1780.317709537755,None,1789.8194201711367,1789.8194201711367,0.009905412414809689,None,1789.8194201711367,1789.8194201711367,1793.6601443109373,None,1793.6601443109373,None,None,0.008143622001625772,None,,NENA_027,001,2021_Jan_25_1035,test7,3.2.4,99.96925109246924,
150,116,Kanalen visade filmer som familjen inte hade sett.  ,6,,7,,cor,1,no,151,152,,,,,,,,,,,,,0,105,105,105,,,,,,,,,,,,,,,,,,,,,,,,,,,,,,,,,,,,,,,,,,,,,,,,,,,,,,,,,,,,,,,,,,,,,,,,,,,,,,,,,,,,,,,,,,,,,1799.1603947719113,None,1799.661166938381,None,1799.661166938381,None,right,0,2.040822669204317,1799.661166938381,None,,,,,,,,,,,,,1801.711483646909,None,,,,,,,,,,,,,,,,,,,,,,,,,,,,,,,,,1793.6700666580919,None,1793.6700666580919,None,1794.1701822826044,None,1798.6709833151099,1798.6709833151099,0.00990412947794539,None,1798.6709833151099,1798.6709833151099,1803.2118233360095,None,1803.2118233360095,None,None,0.00866032405065198,None,,NENA_027,001,2021_Jan_25_1035,test7,3.2.4,99.96925109246924,
180,23,Pianot som alldeles nyss hade burits in i vardagsrummet av männen från flyttfirman var fruktansvärt ostämd och lät förskräckligt. ,16,,0,,inc,1,no,182,199,,,,,,,,,,,,,0,106,106,106,,,,,,,,,,,,,,,,,,,,,,,,,,,,,,,,,,,,,,,,,,,,,,,,,,,,,,,,,,,,,,,,,,,,,,,,,,,,,,,,,,,,,,,,,,,,,1814.2130444976365,None,1814.7138307763908,None,1814.7138307763908,None,left,0,2.7636105766441688,1814.7138307763908,None,,,,,,,,,,,,,1817.4939860820805,None,,,,,,,,,,,,,,,,,,,,,,,,,,,,,,,,,1803.2217953968939,None,1803.2217953968939,None,1803.7218696467535,None,1813.7236455494503,1813.7236455494503,0.00990573314811627,None,1813.7236455494503,1813.7236455494503,1818.9946009607254,None,1818.9946009607254,None,None,0.007735007221526757,None,,NENA_027,001,2021_Jan_25_1035,test7,3.2.4,99.96925109246924,
170,108,Jordgubben lyser helt rött bland de gröna bladen. ,4,,0,,inc,1,no,172,199,,,,,,,,,,,,,0,107,107,107,,,,,,,,,,,,,,,,,,,,,,,,,,,,,,,,,,,,,,,,,,,,,,,,,,,,,,,,,,,,,,,,,,,,,,,,,,,,,,,,,,,,,,,,,,,,,1824.494859440044,None,1824.9956373797204,None,1824.9956373797204,None,left,0,2.4335572803192917,1824.9956373797204,None,,,,,,,,,,,,,1827.4460354263238,None,,,,,,,,,,,,,,,,,,,,,,,,,,,,,,,,,1819.0045832850892,None,1819.0045832850892,None,1819.5046694020975,None,1824.005466906533,1824.005466906533,0.009909902685649286,None,1824.005466906533,1824.005466906533,1828.9463722288199,None,1828.9463722288199,None,None,0.008170884368155384,None,,NENA_027,001,2021_Jan_25_1035,test7,3.2.4,99.96925109246924,
